"success","timeout","failed_images","failed_audio","failed_video","trial_type","trial_index","time_elapsed","internal_node_id","rt","stimulus","response","value","item_width_mm","item_height_mm","item_width_px","px2mm","view_dist_mm","item_width_deg","px2deg","scale_factor","win_width_deg","win_height_deg","view_history","response_type","key_press","avg_frame_time","center_x","center_y","correct_response","correct","Image","word","condition","shape","association","screen_id","LeftLable","RightLable"
"true","false","[]","[]","[]","preload","0","24214","0.0-0.0","","","","","","","","","","","","","","","","","","","","","","","","","","","","","",""
"","","","","","html-keyboard-response","1","49077","0.0-1.0","24862","
     <p>您好，欢迎参加本次实验。</p>
     <p>为充分保障您的权利，请确保您已经知晓并同意《参与实验同意书》以及《数据公开知情同意书》。</p>
     <p>如果您未见过上述内容，请咨询实验员。</p>
     <p>如果您选择继续实验，则表示您已经清楚两份知情同意书的内容并同意。</p>
     <p> <div style = ""color: green""><按任意键至下页></div> </p>
     "," ","","","","","","","","","","","","","","","","","","","","","","","","","","",""
"","","","","","html-keyboard-response","2","52009","0.0-2.0","2931","
     <p>本实验首先需要您填写一些基本个人信息。</p>
     <p> <div style = ""color: green""><按任意键至下页></div></p>
     "," ","","","","","","","","","","","","","","","","","","","","","","","","","","",""
"","","","","","call-function","3","52010","0.0-3.0-0.0","","","","","","","","","","","","","","","","","","","","","","","","","","","","","",""
"","","","","","survey-html-form","4","168716","0.0-3.0-1.0","116699","","{""Q0"":""29""}","","","","","","","","","","","","","","","","","","","","","","","","","","",""
"","","","","","html-button-response","5","170076","0.0-3.0-2.0","1356","<p style = 'color : white'>您的性别</p>","1","","","","","","","","","","","","","","","","","","","","","","","","","","",""
"","","","","","survey-html-form","6","194507","0.0-3.0-3.0","24430","","{""Q0"":""2002""}","","","","","","","","","","","","","","","","","","","","","","","","","","",""
"","","","","","survey-html-form","7","200403","0.0-3.0-4.0","5895","","{""Q0"":""6""}","","","","","","","","","","","","","","","","","","","","","","","","","","",""
"","","","","","virtual-chinrest","8","410784","0.0-4.0","210380","","","","85.6","53.98","411.6840037897756","4.813871155425418","594.64","8.233680075795512","50","0.9181799548204546","29.64","14.8","","","","","","","","","","","","","","","",""
"true","","","","","fullscreen","9","423625","0.0-5.0","","","","","","","","","","","","","","","","","","","","","","","","","","","","","",""
"","","","","","instructions","10","479363","0.0-6.0","55736","","","","","","","","","","","","","","[{""page_index"":0,""viewing_time"":20164},{""page_index"":1,""viewing_time"":7845},{""page_index"":2,""viewing_time"":18471},{""page_index"":3,""viewing_time"":5153},{""page_index"":4,""viewing_time"":4103}]","","","","","","","","","","","","","","",""
"","","","","","psychophysics","11","481872","0.0-7.0-0.0-0.0","null","","null","","","","","","","","","","","","","key","null","16.622147651006788","768","428","j","false","../../test_img/26.png","自我","prac_matching_task","自我","[""<img src=\""../../test_img/22.png\"" width=150 style=\""vertical-align:middle\"">---朋友"",""<img src=\""../../test_img/15.png\"" width=150 style=\""vertical-align:middle\"">---生人"",""<img src=\""../../test_img/26.png\"" width=150 style=\""vertical-align:middle\"">---自我""]","","",""
"","","","","","html-keyboard-response","12","482179","0.0-7.0-0.0-1.0","null","<span class='add_' style='color:yellow; font-size: 70px;'> 太慢! </span>","null","","","","","","","","","","","","","","","","","","","","","","","","","feedback_test","",""
"","","","","","psychophysics","13","484112","0.0-7.0-0.0-0.1","927","","f","","","","","","","","","","","","","key","f","16.62029565217368","768","428","f","true","../../test_img/26.png","生人","prac_matching_task","自我","[""<img src=\""../../test_img/22.png\"" width=150 style=\""vertical-align:middle\"">---朋友"",""<img src=\""../../test_img/15.png\"" width=150 style=\""vertical-align:middle\"">---生人"",""<img src=\""../../test_img/26.png\"" width=150 style=\""vertical-align:middle\"">---自我""]","","",""
"","","","","","html-keyboard-response","14","484416","0.0-7.0-0.0-1.1","null","<span style='color:GreenYellow; font-size: 70px;'>正确! </span>","null","","","","","","","","","","","","","","","","","","","","","","","","","feedback_test","",""
"","","","","","psychophysics","15","486566","0.0-7.0-0.0-0.2","1146","","j","","","","","","","","","","","","","key","j","16.620062499999676","768","428","f","false","../../test_img/15.png","自我","prac_matching_task","生人","[""<img src=\""../../test_img/22.png\"" width=150 style=\""vertical-align:middle\"">---朋友"",""<img src=\""../../test_img/15.png\"" width=150 style=\""vertical-align:middle\"">---生人"",""<img src=\""../../test_img/26.png\"" width=150 style=\""vertical-align:middle\"">---自我""]","","",""
"","","","","","html-keyboard-response","16","486875","0.0-7.0-0.0-1.2","null","<span style='color:red; font-size: 70px;'>错误! </span>","null","","","","","","","","","","","","","","","","","","","","","","","","","feedback_test","",""
"","","","","","psychophysics","17","489314","0.0-7.0-0.0-0.3","1426","","j","","","","","","","","","","","","","key","j","16.62137931034467","768","428","j","true","../../test_img/15.png","生人","prac_matching_task","生人","[""<img src=\""../../test_img/22.png\"" width=150 style=\""vertical-align:middle\"">---朋友"",""<img src=\""../../test_img/15.png\"" width=150 style=\""vertical-align:middle\"">---生人"",""<img src=\""../../test_img/26.png\"" width=150 style=\""vertical-align:middle\"">---自我""]","","",""
"","","","","","html-keyboard-response","18","489619","0.0-7.0-0.0-1.3","null","<span style='color:GreenYellow; font-size: 70px;'>正确! </span>","null","","","","","","","","","","","","","","","","","","","","","","","","","feedback_test","",""
"","","","","","psychophysics","19","491542","0.0-7.0-0.0-0.4","913","","j","","","","","","","","","","","","","key","j","16.620473684211007","768","428","j","true","../../test_img/15.png","生人","prac_matching_task","生人","[""<img src=\""../../test_img/22.png\"" width=150 style=\""vertical-align:middle\"">---朋友"",""<img src=\""../../test_img/15.png\"" width=150 style=\""vertical-align:middle\"">---生人"",""<img src=\""../../test_img/26.png\"" width=150 style=\""vertical-align:middle\"">---自我""]","","",""
"","","","","","html-keyboard-response","20","491847","0.0-7.0-0.0-1.4","null","<span style='color:GreenYellow; font-size: 70px;'>正确! </span>","null","","","","","","","","","","","","","","","","","","","","","","","","","feedback_test","",""
"","","","","","psychophysics","21","494141","0.0-7.0-0.0-0.5","1284","","f","","","","","","","","","","","","","key","f","16.619708029197252","768","428","f","true","../../test_img/22.png","生人","prac_matching_task","朋友","[""<img src=\""../../test_img/22.png\"" width=150 style=\""vertical-align:middle\"">---朋友"",""<img src=\""../../test_img/15.png\"" width=150 style=\""vertical-align:middle\"">---生人"",""<img src=\""../../test_img/26.png\"" width=150 style=\""vertical-align:middle\"">---自我""]","","",""
"","","","","","html-keyboard-response","22","494455","0.0-7.0-0.0-1.5","null","<span style='color:GreenYellow; font-size: 70px;'>正确! </span>","null","","","","","","","","","","","","","","","","","","","","","","","","","feedback_test","",""
"","","","","","psychophysics","23","496676","0.0-7.0-0.0-0.6","1207","","j","","","","","","","","","","","","","key","j","16.619954545454785","768","428","j","true","../../test_img/22.png","朋友","prac_matching_task","朋友","[""<img src=\""../../test_img/22.png\"" width=150 style=\""vertical-align:middle\"">---朋友"",""<img src=\""../../test_img/15.png\"" width=150 style=\""vertical-align:middle\"">---生人"",""<img src=\""../../test_img/26.png\"" width=150 style=\""vertical-align:middle\"">---自我""]","","",""
"","","","","","html-keyboard-response","24","496979","0.0-7.0-0.0-1.6","null","<span style='color:GreenYellow; font-size: 70px;'>正确! </span>","null","","","","","","","","","","","","","","","","","","","","","","","","","feedback_test","",""
"","","","","","psychophysics","25","499096","0.0-7.0-0.0-0.7","1108","","f","","","","","","","","","","","","","key","f","16.623015873015873","768","428","f","true","../../test_img/26.png","朋友","prac_matching_task","自我","[""<img src=\""../../test_img/22.png\"" width=150 style=\""vertical-align:middle\"">---朋友"",""<img src=\""../../test_img/15.png\"" width=150 style=\""vertical-align:middle\"">---生人"",""<img src=\""../../test_img/26.png\"" width=150 style=\""vertical-align:middle\"">---自我""]","","",""
"","","","","","html-keyboard-response","26","499404","0.0-7.0-0.0-1.7","null","<span style='color:GreenYellow; font-size: 70px;'>正确! </span>","null","","","","","","","","","","","","","","","","","","","","","","","","","feedback_test","",""
"","","","","","psychophysics","27","501670","0.0-7.0-0.0-0.8","1264","","f","","","","","","","","","","","","","key","f","16.614794117647655","768","428","f","true","../../test_img/15.png","朋友","prac_matching_task","生人","[""<img src=\""../../test_img/22.png\"" width=150 style=\""vertical-align:middle\"">---朋友"",""<img src=\""../../test_img/15.png\"" width=150 style=\""vertical-align:middle\"">---生人"",""<img src=\""../../test_img/26.png\"" width=150 style=\""vertical-align:middle\"">---自我""]","","",""
"","","","","","html-keyboard-response","28","501972","0.0-7.0-0.0-1.8","null","<span style='color:GreenYellow; font-size: 70px;'>正确! </span>","null","","","","","","","","","","","","","","","","","","","","","","","","","feedback_test","",""
"","","","","","psychophysics","29","503958","0.0-7.0-0.0-0.9","976","","j","","","","","","","","","","","","","key","j","16.622033898305283","768","428","j","true","../../test_img/22.png","朋友","prac_matching_task","朋友","[""<img src=\""../../test_img/22.png\"" width=150 style=\""vertical-align:middle\"">---朋友"",""<img src=\""../../test_img/15.png\"" width=150 style=\""vertical-align:middle\"">---生人"",""<img src=\""../../test_img/26.png\"" width=150 style=\""vertical-align:middle\"">---自我""]","","",""
"","","","","","html-keyboard-response","30","504262","0.0-7.0-0.0-1.9","null","<span style='color:GreenYellow; font-size: 70px;'>正确! </span>","null","","","","","","","","","","","","","","","","","","","","","","","","","feedback_test","",""
"","","","","","psychophysics","31","506380","0.0-7.0-0.0-0.10","1105","","j","","","","","","","","","","","","","key","j","16.619841269841086","768","428","j","true","../../test_img/26.png","自我","prac_matching_task","自我","[""<img src=\""../../test_img/22.png\"" width=150 style=\""vertical-align:middle\"">---朋友"",""<img src=\""../../test_img/15.png\"" width=150 style=\""vertical-align:middle\"">---生人"",""<img src=\""../../test_img/26.png\"" width=150 style=\""vertical-align:middle\"">---自我""]","","",""
"","","","","","html-keyboard-response","32","506696","0.0-7.0-0.0-1.10","null","<span style='color:GreenYellow; font-size: 70px;'>正确! </span>","null","","","","","","","","","","","","","","","","","","","","","","","","","feedback_test","",""
"","","","","","psychophysics","33","508690","0.0-7.0-0.0-0.11","988","","f","","","","","","","","","","","","","key","f","16.620168067227283","768","428","f","true","../../test_img/22.png","自我","prac_matching_task","朋友","[""<img src=\""../../test_img/22.png\"" width=150 style=\""vertical-align:middle\"">---朋友"",""<img src=\""../../test_img/15.png\"" width=150 style=\""vertical-align:middle\"">---生人"",""<img src=\""../../test_img/26.png\"" width=150 style=\""vertical-align:middle\"">---自我""]","","",""
"","","","","","html-keyboard-response","34","508998","0.0-7.0-0.0-1.11","null","<span style='color:GreenYellow; font-size: 70px;'>正确! </span>","null","","","","","","","","","","","","","","","","","","","","","","","","","feedback_test","",""
"","","","","","psychophysics","35","510919","0.0-7.0-0.0-0.12","908","","j","","","","","","","","","","","","","key","j","16.619298245614853","768","428","j","true","../../test_img/26.png","自我","prac_matching_task","自我","[""<img src=\""../../test_img/22.png\"" width=150 style=\""vertical-align:middle\"">---朋友"",""<img src=\""../../test_img/15.png\"" width=150 style=\""vertical-align:middle\"">---生人"",""<img src=\""../../test_img/26.png\"" width=150 style=\""vertical-align:middle\"">---自我""]","","",""
"","","","","","html-keyboard-response","36","511224","0.0-7.0-0.0-1.12","null","<span style='color:GreenYellow; font-size: 70px;'>正确! </span>","null","","","","","","","","","","","","","","","","","","","","","","","","","feedback_test","",""
"","","","","","psychophysics","37","513016","0.0-7.0-0.0-0.13","782","","f","","","","","","","","","","","","","key","f","16.620754716980475","768","428","f","true","../../test_img/22.png","自我","prac_matching_task","朋友","[""<img src=\""../../test_img/22.png\"" width=150 style=\""vertical-align:middle\"">---朋友"",""<img src=\""../../test_img/15.png\"" width=150 style=\""vertical-align:middle\"">---生人"",""<img src=\""../../test_img/26.png\"" width=150 style=\""vertical-align:middle\"">---自我""]","","",""
"","","","","","html-keyboard-response","38","513321","0.0-7.0-0.0-1.13","null","<span style='color:GreenYellow; font-size: 70px;'>正确! </span>","null","","","","","","","","","","","","","","","","","","","","","","","","","feedback_test","",""
"","","","","","psychophysics","39","515055","0.0-7.0-0.0-0.14","721","","j","","","","","","","","","","","","","key","j","16.62135922330097","768","428","j","true","../../test_img/26.png","自我","prac_matching_task","自我","[""<img src=\""../../test_img/22.png\"" width=150 style=\""vertical-align:middle\"">---朋友"",""<img src=\""../../test_img/15.png\"" width=150 style=\""vertical-align:middle\"">---生人"",""<img src=\""../../test_img/26.png\"" width=150 style=\""vertical-align:middle\"">---自我""]","","",""
"","","","","","html-keyboard-response","40","515362","0.0-7.0-0.0-1.14","null","<span style='color:GreenYellow; font-size: 70px;'>正确! </span>","null","","","","","","","","","","","","","","","","","","","","","","","","","feedback_test","",""
"","","","","","psychophysics","41","517228","0.0-7.0-0.0-0.15","853","","f","","","","","","","","","","","","","key","f","16.62162162162162","768","428","f","true","../../test_img/22.png","生人","prac_matching_task","朋友","[""<img src=\""../../test_img/22.png\"" width=150 style=\""vertical-align:middle\"">---朋友"",""<img src=\""../../test_img/15.png\"" width=150 style=\""vertical-align:middle\"">---生人"",""<img src=\""../../test_img/26.png\"" width=150 style=\""vertical-align:middle\"">---自我""]","","",""
"","","","","","html-keyboard-response","42","517530","0.0-7.0-0.0-1.15","null","<span style='color:GreenYellow; font-size: 70px;'>正确! </span>","null","","","","","","","","","","","","","","","","","","","","","","","","","feedback_test","",""
"","","","","","psychophysics","43","519135","0.0-7.0-0.0-0.16","599","","j","","","","","","","","","","","","","key","j","16.621052631578948","768","428","j","true","../../test_img/15.png","生人","prac_matching_task","生人","[""<img src=\""../../test_img/22.png\"" width=150 style=\""vertical-align:middle\"">---朋友"",""<img src=\""../../test_img/15.png\"" width=150 style=\""vertical-align:middle\"">---生人"",""<img src=\""../../test_img/26.png\"" width=150 style=\""vertical-align:middle\"">---自我""]","","",""
"","","","","","html-keyboard-response","44","519437","0.0-7.0-0.0-1.16","null","<span style='color:GreenYellow; font-size: 70px;'>正确! </span>","null","","","","","","","","","","","","","","","","","","","","","","","","","feedback_test","",""
"","","","","","psychophysics","45","521278","0.0-7.0-0.0-0.17","829","","j","","","","","","","","","","","","","key","j","16.621100917431832","768","428","j","true","../../test_img/22.png","朋友","prac_matching_task","朋友","[""<img src=\""../../test_img/22.png\"" width=150 style=\""vertical-align:middle\"">---朋友"",""<img src=\""../../test_img/15.png\"" width=150 style=\""vertical-align:middle\"">---生人"",""<img src=\""../../test_img/26.png\"" width=150 style=\""vertical-align:middle\"">---自我""]","","",""
"","","","","","html-keyboard-response","46","521581","0.0-7.0-0.0-1.17","null","<span style='color:GreenYellow; font-size: 70px;'>正确! </span>","null","","","","","","","","","","","","","","","","","","","","","","","","","feedback_test","",""
"","","","","","psychophysics","47","523370","0.0-7.0-0.0-0.18","785","","j","","","","","","","","","","","","","key","j","16.62013207547112","768","428","j","true","../../test_img/22.png","朋友","prac_matching_task","朋友","[""<img src=\""../../test_img/22.png\"" width=150 style=\""vertical-align:middle\"">---朋友"",""<img src=\""../../test_img/15.png\"" width=150 style=\""vertical-align:middle\"">---生人"",""<img src=\""../../test_img/26.png\"" width=150 style=\""vertical-align:middle\"">---自我""]","","",""
"","","","","","html-keyboard-response","48","523674","0.0-7.0-0.0-1.18","null","<span style='color:GreenYellow; font-size: 70px;'>正确! </span>","null","","","","","","","","","","","","","","","","","","","","","","","","","feedback_test","",""
"","","","","","psychophysics","49","525534","0.0-7.0-0.0-0.19","857","","f","","","","","","","","","","","","","key","f","16.620909090909514","768","428","f","true","../../test_img/15.png","朋友","prac_matching_task","生人","[""<img src=\""../../test_img/22.png\"" width=150 style=\""vertical-align:middle\"">---朋友"",""<img src=\""../../test_img/15.png\"" width=150 style=\""vertical-align:middle\"">---生人"",""<img src=\""../../test_img/26.png\"" width=150 style=\""vertical-align:middle\"">---自我""]","","",""
"","","","","","html-keyboard-response","50","525835","0.0-7.0-0.0-1.19","null","<span style='color:GreenYellow; font-size: 70px;'>正确! </span>","null","","","","","","","","","","","","","","","","","","","","","","","","","feedback_test","",""
"","","","","","psychophysics","51","528173","0.0-7.0-0.0-0.20","1325","","f","","","","","","","","","","","","","key","f","16.62230215827338","768","428","f","true","../../test_img/15.png","自我","prac_matching_task","生人","[""<img src=\""../../test_img/22.png\"" width=150 style=\""vertical-align:middle\"">---朋友"",""<img src=\""../../test_img/15.png\"" width=150 style=\""vertical-align:middle\"">---生人"",""<img src=\""../../test_img/26.png\"" width=150 style=\""vertical-align:middle\"">---自我""]","","",""
"","","","","","html-keyboard-response","52","528478","0.0-7.0-0.0-1.20","null","<span style='color:GreenYellow; font-size: 70px;'>正确! </span>","null","","","","","","","","","","","","","","","","","","","","","","","","","feedback_test","",""
"","","","","","psychophysics","53","530340","0.0-7.0-0.0-0.21","848","","j","","","","","","","","","","","","","key","j","16.619999999999578","768","428","j","true","../../test_img/15.png","生人","prac_matching_task","生人","[""<img src=\""../../test_img/22.png\"" width=150 style=\""vertical-align:middle\"">---朋友"",""<img src=\""../../test_img/15.png\"" width=150 style=\""vertical-align:middle\"">---生人"",""<img src=\""../../test_img/26.png\"" width=150 style=\""vertical-align:middle\"">---自我""]","","",""
"","","","","","html-keyboard-response","54","530641","0.0-7.0-0.0-1.21","null","<span style='color:GreenYellow; font-size: 70px;'>正确! </span>","null","","","","","","","","","","","","","","","","","","","","","","","","","feedback_test","",""
"","","","","","psychophysics","55","532656","0.0-7.0-0.0-0.22","1002","","f","","","","","","","","","","","","","key","f","16.621666666666474","768","428","f","true","../../test_img/26.png","生人","prac_matching_task","自我","[""<img src=\""../../test_img/22.png\"" width=150 style=\""vertical-align:middle\"">---朋友"",""<img src=\""../../test_img/15.png\"" width=150 style=\""vertical-align:middle\"">---生人"",""<img src=\""../../test_img/26.png\"" width=150 style=\""vertical-align:middle\"">---自我""]","","",""
"","","","","","html-keyboard-response","56","532966","0.0-7.0-0.0-1.22","null","<span style='color:GreenYellow; font-size: 70px;'>正确! </span>","null","","","","","","","","","","","","","","","","","","","","","","","","","feedback_test","",""
"","","","","","psychophysics","57","534807","0.0-7.0-0.0-0.23","827","","f","","","","","","","","","","","","","key","f","16.621100917430766","768","428","f","true","../../test_img/26.png","朋友","prac_matching_task","自我","[""<img src=\""../../test_img/22.png\"" width=150 style=\""vertical-align:middle\"">---朋友"",""<img src=\""../../test_img/15.png\"" width=150 style=\""vertical-align:middle\"">---生人"",""<img src=\""../../test_img/26.png\"" width=150 style=\""vertical-align:middle\"">---自我""]","","",""
"","","","","","html-keyboard-response","58","535117","0.0-7.0-0.0-1.23","null","<span style='color:GreenYellow; font-size: 70px;'>正确! </span>","null","","","","","","","","","","","","","","","","","","","","","","","","","feedback_test","",""
"","","","","","html-keyboard-response","59","546132","0.0-8.0","11013","<style>.context{color:white; font-size: 35px; line-height:40px}</style>                          <div><p class='context'>您正确回答了92% 的试次。</p ><p class='context'>您的平均反应时为979毫秒。</p ><p class='context'>恭喜您完成练习。按任意键进入知觉匹配任务正式实验。</p ><p style = 'color:lightgreen; font-size: 35px;' >正式实验与练习要求相同，请您尽可能又快又准地进行按键反应</p><p class='footer' style='font-size: 22px; line-height:40px;'>在实验过程中请将您分别将<span style='color: lightgreen;'>左手和右手的食指</span>放在电脑键盘的相应键位上进行按键。</p >"," ","","","","","","","","","","","","","","","","","","","","","","","","","","",""
"","","","","","psychophysics","60","548108","0.0-9.0-0.0-0.0-0.0-0.0","964","","f","","","","","","","","","","","","","key","f","16.62222222222262","768","428","f","true","../../test_img/22.png","生人","matching_task","朋友","[""<img src=\""../../test_img/22.png\"" width=150 style=\""vertical-align:middle\"">---朋友"",""<img src=\""../../test_img/15.png\"" width=150 style=\""vertical-align:middle\"">---生人"",""<img src=\""../../test_img/26.png\"" width=150 style=\""vertical-align:middle\"">---自我""]","","",""
"","","","","","html-keyboard-response","61","548614","0.0-9.0-0.0-0.0-0.0-1.0","null","<span style='color:GreenYellow; font-size: 70px;'>正确! </span>","null","","","","","","","","","","","","","","","","","","","","","","","","","feedback_test","",""
"","","","","","psychophysics","62","550784","0.0-9.0-0.0-0.0-0.0-0.1","1164","","f","","","","","","","","","","","","","key","f","16.62153846153882","768","428","f","true","../../test_img/26.png","生人","matching_task","自我","[""<img src=\""../../test_img/22.png\"" width=150 style=\""vertical-align:middle\"">---朋友"",""<img src=\""../../test_img/15.png\"" width=150 style=\""vertical-align:middle\"">---生人"",""<img src=\""../../test_img/26.png\"" width=150 style=\""vertical-align:middle\"">---自我""]","","",""
"","","","","","html-keyboard-response","63","551293","0.0-9.0-0.0-0.0-0.0-1.1","null","<span style='color:GreenYellow; font-size: 70px;'>正确! </span>","null","","","","","","","","","","","","","","","","","","","","","","","","","feedback_test","",""
"","","","","","psychophysics","64","553106","0.0-9.0-0.0-0.0-0.0-0.2","810","","f","","","","","","","","","","","","","key","f","16.62037037037037","768","428","f","true","../../test_img/22.png","自我","matching_task","朋友","[""<img src=\""../../test_img/22.png\"" width=150 style=\""vertical-align:middle\"">---朋友"",""<img src=\""../../test_img/15.png\"" width=150 style=\""vertical-align:middle\"">---生人"",""<img src=\""../../test_img/26.png\"" width=150 style=\""vertical-align:middle\"">---自我""]","","",""
"","","","","","html-keyboard-response","65","553612","0.0-9.0-0.0-0.0-0.0-1.2","null","<span style='color:GreenYellow; font-size: 70px;'>正确! </span>","null","","","","","","","","","","","","","","","","","","","","","","","","","feedback_test","",""
"","","","","","psychophysics","66","555423","0.0-9.0-0.0-0.0-0.0-0.3","802","","f","","","","","","","","","","","","","key","f","16.62222222222287","768","428","f","true","../../test_img/15.png","自我","matching_task","生人","[""<img src=\""../../test_img/22.png\"" width=150 style=\""vertical-align:middle\"">---朋友"",""<img src=\""../../test_img/15.png\"" width=150 style=\""vertical-align:middle\"">---生人"",""<img src=\""../../test_img/26.png\"" width=150 style=\""vertical-align:middle\"">---自我""]","","",""
"","","","","","html-keyboard-response","67","555939","0.0-9.0-0.0-0.0-0.0-1.3","null","<span style='color:GreenYellow; font-size: 70px;'>正确! </span>","null","","","","","","","","","","","","","","","","","","","","","","","","","feedback_test","",""
"","","","","","psychophysics","68","557706","0.0-9.0-0.0-0.0-0.0-0.4","761","","f","","","","","","","","","","","","","key","f","16.623809523809523","768","428","f","true","../../test_img/26.png","朋友","matching_task","自我","[""<img src=\""../../test_img/22.png\"" width=150 style=\""vertical-align:middle\"">---朋友"",""<img src=\""../../test_img/15.png\"" width=150 style=\""vertical-align:middle\"">---生人"",""<img src=\""../../test_img/26.png\"" width=150 style=\""vertical-align:middle\"">---自我""]","","",""
"","","","","","html-keyboard-response","69","558223","0.0-9.0-0.0-0.0-0.0-1.4","null","<span style='color:GreenYellow; font-size: 70px;'>正确! </span>","null","","","","","","","","","","","","","","","","","","","","","","","","","feedback_test","",""
"","","","","","psychophysics","70","560379","0.0-9.0-0.0-0.0-0.0-0.5","1152","","j","","","","","","","","","","","","","key","j","16.62170542635623","768","428","j","true","../../test_img/26.png","自我","matching_task","自我","[""<img src=\""../../test_img/22.png\"" width=150 style=\""vertical-align:middle\"">---朋友"",""<img src=\""../../test_img/15.png\"" width=150 style=\""vertical-align:middle\"">---生人"",""<img src=\""../../test_img/26.png\"" width=150 style=\""vertical-align:middle\"">---自我""]","","",""
"","","","","","html-keyboard-response","71","560891","0.0-9.0-0.0-0.0-0.0-1.5","null","<span style='color:GreenYellow; font-size: 70px;'>正确! </span>","null","","","","","","","","","","","","","","","","","","","","","","","","","feedback_test","",""
"","","","","","psychophysics","72","562717","0.0-9.0-0.0-0.0-0.0-0.6","815","","j","","","","","","","","","","","","","key","j","16.62129629629608","768","428","j","true","../../test_img/22.png","朋友","matching_task","朋友","[""<img src=\""../../test_img/22.png\"" width=150 style=\""vertical-align:middle\"">---朋友"",""<img src=\""../../test_img/15.png\"" width=150 style=\""vertical-align:middle\"">---生人"",""<img src=\""../../test_img/26.png\"" width=150 style=\""vertical-align:middle\"">---自我""]","","",""
"","","","","","html-keyboard-response","73","563228","0.0-9.0-0.0-0.0-0.0-1.6","null","<span style='color:GreenYellow; font-size: 70px;'>正确! </span>","null","","","","","","","","","","","","","","","","","","","","","","","","","feedback_test","",""
"","","","","","psychophysics","74","565017","0.0-9.0-0.0-0.0-0.0-0.7","786","","j","","","","","","","","","","","","","key","j","16.623364485981963","768","428","j","true","../../test_img/26.png","自我","matching_task","自我","[""<img src=\""../../test_img/22.png\"" width=150 style=\""vertical-align:middle\"">---朋友"",""<img src=\""../../test_img/15.png\"" width=150 style=\""vertical-align:middle\"">---生人"",""<img src=\""../../test_img/26.png\"" width=150 style=\""vertical-align:middle\"">---自我""]","","",""
"","","","","","html-keyboard-response","75","565531","0.0-9.0-0.0-0.0-0.0-1.7","null","<span style='color:GreenYellow; font-size: 70px;'>正确! </span>","null","","","","","","","","","","","","","","","","","","","","","","","","","feedback_test","",""
"","","","","","psychophysics","76","567896","0.0-9.0-0.0-0.0-0.0-0.8","1354","","f","","","","","","","","","","","","","key","f","16.62198581560333","768","428","f","true","../../test_img/15.png","朋友","matching_task","生人","[""<img src=\""../../test_img/22.png\"" width=150 style=\""vertical-align:middle\"">---朋友"",""<img src=\""../../test_img/15.png\"" width=150 style=\""vertical-align:middle\"">---生人"",""<img src=\""../../test_img/26.png\"" width=150 style=\""vertical-align:middle\"">---自我""]","","",""
"","","","","","html-keyboard-response","77","568401","0.0-9.0-0.0-0.0-0.0-1.8","null","<span style='color:GreenYellow; font-size: 70px;'>正确! </span>","null","","","","","","","","","","","","","","","","","","","","","","","","","feedback_test","",""
"","","","","","psychophysics","78","570332","0.0-9.0-0.0-0.0-0.0-0.9","915","","j","","","","","","","","","","","","","key","j","16.616521739130636","768","428","j","true","../../test_img/15.png","生人","matching_task","生人","[""<img src=\""../../test_img/22.png\"" width=150 style=\""vertical-align:middle\"">---朋友"",""<img src=\""../../test_img/15.png\"" width=150 style=\""vertical-align:middle\"">---生人"",""<img src=\""../../test_img/26.png\"" width=150 style=\""vertical-align:middle\"">---自我""]","","",""
"","","","","","html-keyboard-response","79","570839","0.0-9.0-0.0-0.0-0.0-1.9","null","<span style='color:GreenYellow; font-size: 70px;'>正确! </span>","null","","","","","","","","","","","","","","","","","","","","","","","","","feedback_test","",""
"","","","","","psychophysics","80","572583","0.0-9.0-0.0-0.0-0.0-0.10","739","","j","","","","","","","","","","","","","key","j","16.61634615384593","768","428","j","true","../../test_img/22.png","朋友","matching_task","朋友","[""<img src=\""../../test_img/22.png\"" width=150 style=\""vertical-align:middle\"">---朋友"",""<img src=\""../../test_img/15.png\"" width=150 style=\""vertical-align:middle\"">---生人"",""<img src=\""../../test_img/26.png\"" width=150 style=\""vertical-align:middle\"">---自我""]","","",""
"","","","","","html-keyboard-response","81","573097","0.0-9.0-0.0-0.0-0.0-1.10","null","<span style='color:GreenYellow; font-size: 70px;'>正确! </span>","null","","","","","","","","","","","","","","","","","","","","","","","","","feedback_test","",""
"","","","","","psychophysics","82","575046","0.0-9.0-0.0-0.0-0.0-0.11","943","","j","","","","","","","","","","","","","key","j","16.62155172413773","768","428","j","true","../../test_img/15.png","生人","matching_task","生人","[""<img src=\""../../test_img/22.png\"" width=150 style=\""vertical-align:middle\"">---朋友"",""<img src=\""../../test_img/15.png\"" width=150 style=\""vertical-align:middle\"">---生人"",""<img src=\""../../test_img/26.png\"" width=150 style=\""vertical-align:middle\"">---自我""]","","",""
"","","","","","html-keyboard-response","83","575558","0.0-9.0-0.0-0.0-0.0-1.11","null","<span style='color:GreenYellow; font-size: 70px;'>正确! </span>","null","","","","","","","","","","","","","","","","","","","","","","","","","feedback_test","",""
"","","","","","psychophysics","84","577883","0.0-9.0-0.0-0.0-0.0-0.12","1319","","f","","","","","","","","","","","","","key","f","16.61798561151096","768","428","f","true","../../test_img/15.png","朋友","matching_task","生人","[""<img src=\""../../test_img/22.png\"" width=150 style=\""vertical-align:middle\"">---朋友"",""<img src=\""../../test_img/15.png\"" width=150 style=\""vertical-align:middle\"">---生人"",""<img src=\""../../test_img/26.png\"" width=150 style=\""vertical-align:middle\"">---自我""]","","",""
"","","","","","html-keyboard-response","85","578394","0.0-9.0-0.0-0.0-0.0-1.12","null","<span style='color:GreenYellow; font-size: 70px;'>正确! </span>","null","","","","","","","","","","","","","","","","","","","","","","","","","feedback_test","",""
"","","","","","psychophysics","86","580217","0.0-9.0-0.0-0.0-0.0-0.13","811","","f","","","","","","","","","","","","","key","f","16.62222222222179","768","428","f","true","../../test_img/26.png","朋友","matching_task","自我","[""<img src=\""../../test_img/22.png\"" width=150 style=\""vertical-align:middle\"">---朋友"",""<img src=\""../../test_img/15.png\"" width=150 style=\""vertical-align:middle\"">---生人"",""<img src=\""../../test_img/26.png\"" width=150 style=\""vertical-align:middle\"">---自我""]","","",""
"","","","","","html-keyboard-response","87","580729","0.0-9.0-0.0-0.0-0.0-1.13","null","<span style='color:GreenYellow; font-size: 70px;'>正确! </span>","null","","","","","","","","","","","","","","","","","","","","","","","","","feedback_test","",""
"","","","","","psychophysics","88","582336","0.0-9.0-0.0-0.0-0.0-0.14","602","","j","","","","","","","","","","","","","key","j","16.621874999999516","768","428","j","true","../../test_img/15.png","生人","matching_task","生人","[""<img src=\""../../test_img/22.png\"" width=150 style=\""vertical-align:middle\"">---朋友"",""<img src=\""../../test_img/15.png\"" width=150 style=\""vertical-align:middle\"">---生人"",""<img src=\""../../test_img/26.png\"" width=150 style=\""vertical-align:middle\"">---自我""]","","",""
"","","","","","html-keyboard-response","89","582852","0.0-9.0-0.0-0.0-0.0-1.14","null","<span style='color:GreenYellow; font-size: 70px;'>正确! </span>","null","","","","","","","","","","","","","","","","","","","","","","","","","feedback_test","",""
"","","","","","psychophysics","90","584630","0.0-9.0-0.0-0.0-0.0-0.15","770","","f","","","","","","","","","","","","","key","f","16.618867924528082","768","428","f","true","../../test_img/22.png","自我","matching_task","朋友","[""<img src=\""../../test_img/22.png\"" width=150 style=\""vertical-align:middle\"">---朋友"",""<img src=\""../../test_img/15.png\"" width=150 style=\""vertical-align:middle\"">---生人"",""<img src=\""../../test_img/26.png\"" width=150 style=\""vertical-align:middle\"">---自我""]","","",""
"","","","","","html-keyboard-response","91","585132","0.0-9.0-0.0-0.0-0.0-1.15","null","<span style='color:GreenYellow; font-size: 70px;'>正确! </span>","null","","","","","","","","","","","","","","","","","","","","","","","","","feedback_test","",""
"","","","","","psychophysics","92","586869","0.0-9.0-0.0-0.0-0.0-0.16","732","","j","","","","","","","","","","","","","key","j","16.62135922330097","768","428","j","true","../../test_img/15.png","生人","matching_task","生人","[""<img src=\""../../test_img/22.png\"" width=150 style=\""vertical-align:middle\"">---朋友"",""<img src=\""../../test_img/15.png\"" width=150 style=\""vertical-align:middle\"">---生人"",""<img src=\""../../test_img/26.png\"" width=150 style=\""vertical-align:middle\"">---自我""]","","",""
"","","","","","html-keyboard-response","93","587375","0.0-9.0-0.0-0.0-0.0-1.16","null","<span style='color:GreenYellow; font-size: 70px;'>正确! </span>","null","","","","","","","","","","","","","","","","","","","","","","","","","feedback_test","",""
"","","","","","psychophysics","94","589306","0.0-9.0-0.0-0.0-0.0-0.17","928","","f","","","","","","","","","","","","","key","f","16.621739130434783","768","428","f","true","../../test_img/22.png","生人","matching_task","朋友","[""<img src=\""../../test_img/22.png\"" width=150 style=\""vertical-align:middle\"">---朋友"",""<img src=\""../../test_img/15.png\"" width=150 style=\""vertical-align:middle\"">---生人"",""<img src=\""../../test_img/26.png\"" width=150 style=\""vertical-align:middle\"">---自我""]","","",""
"","","","","","html-keyboard-response","95","589814","0.0-9.0-0.0-0.0-0.0-1.17","null","<span style='color:GreenYellow; font-size: 70px;'>正确! </span>","null","","","","","","","","","","","","","","","","","","","","","","","","","feedback_test","",""
"","","","","","psychophysics","96","591560","0.0-9.0-0.0-0.0-0.0-0.18","735","","j","","","","","","","","","","","","","key","j","16.622115384614936","768","428","j","true","../../test_img/22.png","朋友","matching_task","朋友","[""<img src=\""../../test_img/22.png\"" width=150 style=\""vertical-align:middle\"">---朋友"",""<img src=\""../../test_img/15.png\"" width=150 style=\""vertical-align:middle\"">---生人"",""<img src=\""../../test_img/26.png\"" width=150 style=\""vertical-align:middle\"">---自我""]","","",""
"","","","","","html-keyboard-response","97","592074","0.0-9.0-0.0-0.0-0.0-1.18","null","<span style='color:GreenYellow; font-size: 70px;'>正确! </span>","null","","","","","","","","","","","","","","","","","","","","","","","","","feedback_test","",""
"","","","","","psychophysics","98","593800","0.0-9.0-0.0-0.0-0.0-0.19","715","","j","","","","","","","","","","","","","key","j","16.621568627451207","768","428","j","true","../../test_img/26.png","自我","matching_task","自我","[""<img src=\""../../test_img/22.png\"" width=150 style=\""vertical-align:middle\"">---朋友"",""<img src=\""../../test_img/15.png\"" width=150 style=\""vertical-align:middle\"">---生人"",""<img src=\""../../test_img/26.png\"" width=150 style=\""vertical-align:middle\"">---自我""]","","",""
"","","","","","html-keyboard-response","99","594306","0.0-9.0-0.0-0.0-0.0-1.19","null","<span style='color:GreenYellow; font-size: 70px;'>正确! </span>","null","","","","","","","","","","","","","","","","","","","","","","","","","feedback_test","",""
"","","","","","psychophysics","100","596027","0.0-9.0-0.0-0.0-0.0-0.20","718","","f","","","","","","","","","","","","","key","f","16.621568627451207","768","428","f","true","../../test_img/26.png","生人","matching_task","自我","[""<img src=\""../../test_img/22.png\"" width=150 style=\""vertical-align:middle\"">---朋友"",""<img src=\""../../test_img/15.png\"" width=150 style=\""vertical-align:middle\"">---生人"",""<img src=\""../../test_img/26.png\"" width=150 style=\""vertical-align:middle\"">---自我""]","","",""
"","","","","","html-keyboard-response","101","596530","0.0-9.0-0.0-0.0-0.0-1.20","null","<span style='color:GreenYellow; font-size: 70px;'>正确! </span>","null","","","","","","","","","","","","","","","","","","","","","","","","","feedback_test","",""
"","","","","","psychophysics","102","598187","0.0-9.0-0.0-0.0-0.0-0.21","648","","j","","","","","","","","","","","","","key","j","16.621428571428808","768","428","j","true","../../test_img/22.png","朋友","matching_task","朋友","[""<img src=\""../../test_img/22.png\"" width=150 style=\""vertical-align:middle\"">---朋友"",""<img src=\""../../test_img/15.png\"" width=150 style=\""vertical-align:middle\"">---生人"",""<img src=\""../../test_img/26.png\"" width=150 style=\""vertical-align:middle\"">---自我""]","","",""
"","","","","","html-keyboard-response","103","598699","0.0-9.0-0.0-0.0-0.0-1.21","null","<span style='color:GreenYellow; font-size: 70px;'>正确! </span>","null","","","","","","","","","","","","","","","","","","","","","","","","","feedback_test","",""
"","","","","","psychophysics","104","600420","0.0-9.0-0.0-0.0-0.0-0.22","720","","j","","","","","","","","","","","","","key","j","16.62038834951479","768","428","j","true","../../test_img/26.png","自我","matching_task","自我","[""<img src=\""../../test_img/22.png\"" width=150 style=\""vertical-align:middle\"">---朋友"",""<img src=\""../../test_img/15.png\"" width=150 style=\""vertical-align:middle\"">---生人"",""<img src=\""../../test_img/26.png\"" width=150 style=\""vertical-align:middle\"">---自我""]","","",""
"","","","","","html-keyboard-response","105","600928","0.0-9.0-0.0-0.0-0.0-1.22","null","<span style='color:GreenYellow; font-size: 70px;'>正确! </span>","null","","","","","","","","","","","","","","","","","","","","","","","","","feedback_test","",""
"","","","","","psychophysics","106","602738","0.0-9.0-0.0-0.0-0.0-0.23","796","","f","","","","","","","","","","","","","key","f","16.62222222222179","768","428","f","true","../../test_img/15.png","自我","matching_task","生人","[""<img src=\""../../test_img/22.png\"" width=150 style=\""vertical-align:middle\"">---朋友"",""<img src=\""../../test_img/15.png\"" width=150 style=\""vertical-align:middle\"">---生人"",""<img src=\""../../test_img/26.png\"" width=150 style=\""vertical-align:middle\"">---自我""]","","",""
"","","","","","html-keyboard-response","107","603251","0.0-9.0-0.0-0.0-0.0-1.23","null","<span style='color:GreenYellow; font-size: 70px;'>正确! </span>","null","","","","","","","","","","","","","","","","","","","","","","","","","feedback_test","",""
"","","","","","psychophysics","108","605018","0.0-9.0-0.0-0.0-0.0-0.24","763","","j","","","","","","","","","","","","","key","j","16.620952380951937","768","428","j","true","../../test_img/26.png","自我","matching_task","自我","[""<img src=\""../../test_img/22.png\"" width=150 style=\""vertical-align:middle\"">---朋友"",""<img src=\""../../test_img/15.png\"" width=150 style=\""vertical-align:middle\"">---生人"",""<img src=\""../../test_img/26.png\"" width=150 style=\""vertical-align:middle\"">---自我""]","","",""
"","","","","","html-keyboard-response","109","605525","0.0-9.0-0.0-0.0-0.0-1.24","null","<span style='color:GreenYellow; font-size: 70px;'>正确! </span>","null","","","","","","","","","","","","","","","","","","","","","","","","","feedback_test","",""
"","","","","","psychophysics","110","607143","0.0-9.0-0.0-0.0-0.0-0.25","611","","j","","","","","","","","","","","","","key","j","16.619791666666668","768","428","j","true","../../test_img/15.png","生人","matching_task","生人","[""<img src=\""../../test_img/22.png\"" width=150 style=\""vertical-align:middle\"">---朋友"",""<img src=\""../../test_img/15.png\"" width=150 style=\""vertical-align:middle\"">---生人"",""<img src=\""../../test_img/26.png\"" width=150 style=\""vertical-align:middle\"">---自我""]","","",""
"","","","","","html-keyboard-response","111","607652","0.0-9.0-0.0-0.0-0.0-1.25","null","<span style='color:GreenYellow; font-size: 70px;'>正确! </span>","null","","","","","","","","","","","","","","","","","","","","","","","","","feedback_test","",""
"","","","","","psychophysics","112","609297","0.0-9.0-0.0-0.0-0.0-0.26","638","","j","","","","","","","","","","","","","key","j","16.621428571428808","768","428","j","true","../../test_img/22.png","朋友","matching_task","朋友","[""<img src=\""../../test_img/22.png\"" width=150 style=\""vertical-align:middle\"">---朋友"",""<img src=\""../../test_img/15.png\"" width=150 style=\""vertical-align:middle\"">---生人"",""<img src=\""../../test_img/26.png\"" width=150 style=\""vertical-align:middle\"">---自我""]","","",""
"","","","","","html-keyboard-response","113","609809","0.0-9.0-0.0-0.0-0.0-1.26","null","<span style='color:GreenYellow; font-size: 70px;'>正确! </span>","null","","","","","","","","","","","","","","","","","","","","","","","","","feedback_test","",""
"","","","","","psychophysics","114","611766","0.0-9.0-0.0-0.0-0.0-0.27","946","","f","","","","","","","","","","","","","key","f","16.62155172413773","768","428","f","true","../../test_img/22.png","生人","matching_task","朋友","[""<img src=\""../../test_img/22.png\"" width=150 style=\""vertical-align:middle\"">---朋友"",""<img src=\""../../test_img/15.png\"" width=150 style=\""vertical-align:middle\"">---生人"",""<img src=\""../../test_img/26.png\"" width=150 style=\""vertical-align:middle\"">---自我""]","","",""
"","","","","","html-keyboard-response","115","612270","0.0-9.0-0.0-0.0-0.0-1.27","null","<span style='color:GreenYellow; font-size: 70px;'>正确! </span>","null","","","","","","","","","","","","","","","","","","","","","","","","","feedback_test","",""
"","","","","","psychophysics","116","614040","0.0-9.0-0.0-0.0-0.0-0.28","760","","f","","","","","","","","","","","","","key","f","16.620952380951937","768","428","f","true","../../test_img/15.png","朋友","matching_task","生人","[""<img src=\""../../test_img/22.png\"" width=150 style=\""vertical-align:middle\"">---朋友"",""<img src=\""../../test_img/15.png\"" width=150 style=\""vertical-align:middle\"">---生人"",""<img src=\""../../test_img/26.png\"" width=150 style=\""vertical-align:middle\"">---自我""]","","",""
"","","","","","html-keyboard-response","117","614552","0.0-9.0-0.0-0.0-0.0-1.28","null","<span style='color:GreenYellow; font-size: 70px;'>正确! </span>","null","","","","","","","","","","","","","","","","","","","","","","","","","feedback_test","",""
"","","","","","psychophysics","118","616768","0.0-9.0-0.0-0.0-0.0-0.29","1211","","f","","","","","","","","","","","","","key","f","16.62121212121212","768","428","f","true","../../test_img/15.png","自我","matching_task","生人","[""<img src=\""../../test_img/22.png\"" width=150 style=\""vertical-align:middle\"">---朋友"",""<img src=\""../../test_img/15.png\"" width=150 style=\""vertical-align:middle\"">---生人"",""<img src=\""../../test_img/26.png\"" width=150 style=\""vertical-align:middle\"">---自我""]","","",""
"","","","","","html-keyboard-response","119","617274","0.0-9.0-0.0-0.0-0.0-1.29","null","<span style='color:GreenYellow; font-size: 70px;'>正确! </span>","null","","","","","","","","","","","","","","","","","","","","","","","","","feedback_test","",""
"","","","","","psychophysics","120","619189","0.0-9.0-0.0-0.0-0.0-0.30","905","","f","","","","","","","","","","","","","key","f","16.62280701754386","768","428","f","true","../../test_img/26.png","生人","matching_task","自我","[""<img src=\""../../test_img/22.png\"" width=150 style=\""vertical-align:middle\"">---朋友"",""<img src=\""../../test_img/15.png\"" width=150 style=\""vertical-align:middle\"">---生人"",""<img src=\""../../test_img/26.png\"" width=150 style=\""vertical-align:middle\"">---自我""]","","",""
"","","","","","html-keyboard-response","121","619691","0.0-9.0-0.0-0.0-0.0-1.30","null","<span style='color:GreenYellow; font-size: 70px;'>正确! </span>","null","","","","","","","","","","","","","","","","","","","","","","","","","feedback_test","",""
"","","","","","psychophysics","122","621401","0.0-9.0-0.0-0.0-0.0-0.31","708","","j","","","","","","","","","","","","","key","j","16.621568627451207","768","428","j","true","../../test_img/26.png","自我","matching_task","自我","[""<img src=\""../../test_img/22.png\"" width=150 style=\""vertical-align:middle\"">---朋友"",""<img src=\""../../test_img/15.png\"" width=150 style=\""vertical-align:middle\"">---生人"",""<img src=\""../../test_img/26.png\"" width=150 style=\""vertical-align:middle\"">---自我""]","","",""
"","","","","","html-keyboard-response","123","621907","0.0-9.0-0.0-0.0-0.0-1.31","null","<span style='color:GreenYellow; font-size: 70px;'>正确! </span>","null","","","","","","","","","","","","","","","","","","","","","","","","","feedback_test","",""
"","","","","","psychophysics","124","623947","0.0-9.0-0.0-0.0-0.0-0.32","1029","","j","","","","","","","","","","","","","key","j","16.6206611570246","768","428","j","true","../../test_img/15.png","生人","matching_task","生人","[""<img src=\""../../test_img/22.png\"" width=150 style=\""vertical-align:middle\"">---朋友"",""<img src=\""../../test_img/15.png\"" width=150 style=\""vertical-align:middle\"">---生人"",""<img src=\""../../test_img/26.png\"" width=150 style=\""vertical-align:middle\"">---自我""]","","",""
"","","","","","html-keyboard-response","125","624460","0.0-9.0-0.0-0.0-0.0-1.32","null","<span style='color:GreenYellow; font-size: 70px;'>正确! </span>","null","","","","","","","","","","","","","","","","","","","","","","","","","feedback_test","",""
"","","","","","psychophysics","126","626350","0.0-9.0-0.0-0.0-0.0-0.33","886","","f","","","","","","","","","","","","","key","f","16.62212389380469","768","428","f","true","../../test_img/22.png","自我","matching_task","朋友","[""<img src=\""../../test_img/22.png\"" width=150 style=\""vertical-align:middle\"">---朋友"",""<img src=\""../../test_img/15.png\"" width=150 style=\""vertical-align:middle\"">---生人"",""<img src=\""../../test_img/26.png\"" width=150 style=\""vertical-align:middle\"">---自我""]","","",""
"","","","","","html-keyboard-response","127","626856","0.0-9.0-0.0-0.0-0.0-1.33","null","<span style='color:GreenYellow; font-size: 70px;'>正确! </span>","null","","","","","","","","","","","","","","","","","","","","","","","","","feedback_test","",""
"","","","","","psychophysics","128","628711","0.0-9.0-0.0-0.0-0.0-0.34","853","","f","","","","","","","","","","","","","key","f","16.62072072071988","768","428","f","true","../../test_img/26.png","朋友","matching_task","自我","[""<img src=\""../../test_img/22.png\"" width=150 style=\""vertical-align:middle\"">---朋友"",""<img src=\""../../test_img/15.png\"" width=150 style=\""vertical-align:middle\"">---生人"",""<img src=\""../../test_img/26.png\"" width=150 style=\""vertical-align:middle\"">---自我""]","","",""
"","","","","","html-keyboard-response","129","629224","0.0-9.0-0.0-0.0-0.0-1.34","null","<span style='color:GreenYellow; font-size: 70px;'>正确! </span>","null","","","","","","","","","","","","","","","","","","","","","","","","","feedback_test","",""
"","","","","","psychophysics","130","630900","0.0-9.0-0.0-0.0-0.0-0.35","666","","j","","","","","","","","","","","","","key","j","16.623000000000467","768","428","j","true","../../test_img/22.png","朋友","matching_task","朋友","[""<img src=\""../../test_img/22.png\"" width=150 style=\""vertical-align:middle\"">---朋友"",""<img src=\""../../test_img/15.png\"" width=150 style=\""vertical-align:middle\"">---生人"",""<img src=\""../../test_img/26.png\"" width=150 style=\""vertical-align:middle\"">---自我""]","","",""
"","","","","","html-keyboard-response","131","631403","0.0-9.0-0.0-0.0-0.0-1.35","null","<span style='color:GreenYellow; font-size: 70px;'>正确! </span>","null","","","","","","","","","","","","","","","","","","","","","","","","","feedback_test","",""
"","","","","","psychophysics","132","633038","0.0-9.0-0.0-0.0-0.0-0.36","627","","j","","","","","","","","","","","","","key","j","16.619587628866938","768","428","j","true","../../test_img/22.png","朋友","matching_task","朋友","[""<img src=\""../../test_img/22.png\"" width=150 style=\""vertical-align:middle\"">---朋友"",""<img src=\""../../test_img/15.png\"" width=150 style=\""vertical-align:middle\"">---生人"",""<img src=\""../../test_img/26.png\"" width=150 style=\""vertical-align:middle\"">---自我""]","","",""
"","","","","","html-keyboard-response","133","633552","0.0-9.0-0.0-0.0-0.0-1.36","null","<span style='color:GreenYellow; font-size: 70px;'>正确! </span>","null","","","","","","","","","","","","","","","","","","","","","","","","","feedback_test","",""
"","","","","","psychophysics","134","635271","0.0-9.0-0.0-0.0-0.0-0.37","715","","j","","","","","","","","","","","","","key","j","16.618627450980163","768","428","j","true","../../test_img/26.png","自我","matching_task","自我","[""<img src=\""../../test_img/22.png\"" width=150 style=\""vertical-align:middle\"">---朋友"",""<img src=\""../../test_img/15.png\"" width=150 style=\""vertical-align:middle\"">---生人"",""<img src=\""../../test_img/26.png\"" width=150 style=\""vertical-align:middle\"">---自我""]","","",""
"","","","","","html-keyboard-response","135","635780","0.0-9.0-0.0-0.0-0.0-1.37","null","<span style='color:GreenYellow; font-size: 70px;'>正确! </span>","null","","","","","","","","","","","","","","","","","","","","","","","","","feedback_test","",""
"","","","","","psychophysics","136","637603","0.0-9.0-0.0-0.0-0.0-0.38","820","","f","","","","","","","","","","","","","key","f","16.62293577981673","768","428","f","true","../../test_img/15.png","朋友","matching_task","生人","[""<img src=\""../../test_img/22.png\"" width=150 style=\""vertical-align:middle\"">---朋友"",""<img src=\""../../test_img/15.png\"" width=150 style=\""vertical-align:middle\"">---生人"",""<img src=\""../../test_img/26.png\"" width=150 style=\""vertical-align:middle\"">---自我""]","","",""
"","","","","","html-keyboard-response","137","638116","0.0-9.0-0.0-0.0-0.0-1.38","null","<span style='color:GreenYellow; font-size: 70px;'>正确! </span>","null","","","","","","","","","","","","","","","","","","","","","","","","","feedback_test","",""
"","","","","","psychophysics","138","639780","0.0-9.0-0.0-0.0-0.0-0.39","658","","j","","","","","","","","","","","","","key","j","16.622222222221986","768","428","j","true","../../test_img/15.png","生人","matching_task","生人","[""<img src=\""../../test_img/22.png\"" width=150 style=\""vertical-align:middle\"">---朋友"",""<img src=\""../../test_img/15.png\"" width=150 style=\""vertical-align:middle\"">---生人"",""<img src=\""../../test_img/26.png\"" width=150 style=\""vertical-align:middle\"">---自我""]","","",""
"","","","","","html-keyboard-response","139","640290","0.0-9.0-0.0-0.0-0.0-1.39","null","<span style='color:GreenYellow; font-size: 70px;'>正确! </span>","null","","","","","","","","","","","","","","","","","","","","","","","","","feedback_test","",""
"","","","","","psychophysics","140","642120","0.0-9.0-0.0-0.0-0.0-0.40","818","","f","","","","","","","","","","","","","key","f","16.62293577981566","768","428","f","true","../../test_img/26.png","生人","matching_task","自我","[""<img src=\""../../test_img/22.png\"" width=150 style=\""vertical-align:middle\"">---朋友"",""<img src=\""../../test_img/15.png\"" width=150 style=\""vertical-align:middle\"">---生人"",""<img src=\""../../test_img/26.png\"" width=150 style=\""vertical-align:middle\"">---自我""]","","",""
"","","","","","html-keyboard-response","141","642624","0.0-9.0-0.0-0.0-0.0-1.40","null","<span style='color:GreenYellow; font-size: 70px;'>正确! </span>","null","","","","","","","","","","","","","","","","","","","","","","","","","feedback_test","",""
"","","","","","psychophysics","142","644274","0.0-9.0-0.0-0.0-0.0-0.41","644","","j","","","","","","","","","","","","","key","j","16.619387755102753","768","428","f","false","../../test_img/22.png","生人","matching_task","朋友","[""<img src=\""../../test_img/22.png\"" width=150 style=\""vertical-align:middle\"">---朋友"",""<img src=\""../../test_img/15.png\"" width=150 style=\""vertical-align:middle\"">---生人"",""<img src=\""../../test_img/26.png\"" width=150 style=\""vertical-align:middle\"">---自我""]","","",""
"","","","","","html-keyboard-response","143","644787","0.0-9.0-0.0-0.0-0.0-1.41","null","<span style='color:red; font-size: 70px;'>错误! </span>","null","","","","","","","","","","","","","","","","","","","","","","","","","feedback_test","",""
"","","","","","psychophysics","144","646734","0.0-9.0-0.0-0.0-0.0-0.42","942","","f","","","","","","","","","","","","","key","f","16.621551724138733","768","428","f","true","../../test_img/22.png","自我","matching_task","朋友","[""<img src=\""../../test_img/22.png\"" width=150 style=\""vertical-align:middle\"">---朋友"",""<img src=\""../../test_img/15.png\"" width=150 style=\""vertical-align:middle\"">---生人"",""<img src=\""../../test_img/26.png\"" width=150 style=\""vertical-align:middle\"">---自我""]","","",""
"","","","","","html-keyboard-response","145","647248","0.0-9.0-0.0-0.0-0.0-1.42","null","<span style='color:GreenYellow; font-size: 70px;'>正确! </span>","null","","","","","","","","","","","","","","","","","","","","","","","","","feedback_test","",""
"","","","","","psychophysics","146","649094","0.0-9.0-0.0-0.0-0.0-0.43","842","","j","","","","","","","","","","","","","key","j","16.62363636363615","768","428","j","true","../../test_img/26.png","自我","matching_task","自我","[""<img src=\""../../test_img/22.png\"" width=150 style=\""vertical-align:middle\"">---朋友"",""<img src=\""../../test_img/15.png\"" width=150 style=\""vertical-align:middle\"">---生人"",""<img src=\""../../test_img/26.png\"" width=150 style=\""vertical-align:middle\"">---自我""]","","",""
"","","","","","html-keyboard-response","147","649598","0.0-9.0-0.0-0.0-0.0-1.43","null","<span style='color:GreenYellow; font-size: 70px;'>正确! </span>","null","","","","","","","","","","","","","","","","","","","","","","","","","feedback_test","",""
"","","","","","psychophysics","148","651391","0.0-9.0-0.0-0.0-0.0-0.44","780","","f","","","","","","","","","","","","","key","f","16.62169811320667","768","428","f","true","../../test_img/26.png","朋友","matching_task","自我","[""<img src=\""../../test_img/22.png\"" width=150 style=\""vertical-align:middle\"">---朋友"",""<img src=\""../../test_img/15.png\"" width=150 style=\""vertical-align:middle\"">---生人"",""<img src=\""../../test_img/26.png\"" width=150 style=\""vertical-align:middle\"">---自我""]","","",""
"","","","","","html-keyboard-response","149","651903","0.0-9.0-0.0-0.0-0.0-1.44","null","<span style='color:GreenYellow; font-size: 70px;'>正确! </span>","null","","","","","","","","","","","","","","","","","","","","","","","","","feedback_test","",""
"","","","","","psychophysics","150","653958","0.0-9.0-0.0-0.0-0.0-0.45","1052","","f","","","","","","","","","","","","","key","f","16.621951219512194","768","428","f","true","../../test_img/15.png","自我","matching_task","生人","[""<img src=\""../../test_img/22.png\"" width=150 style=\""vertical-align:middle\"">---朋友"",""<img src=\""../../test_img/15.png\"" width=150 style=\""vertical-align:middle\"">---生人"",""<img src=\""../../test_img/26.png\"" width=150 style=\""vertical-align:middle\"">---自我""]","","",""
"","","","","","html-keyboard-response","151","654460","0.0-9.0-0.0-0.0-0.0-1.45","null","<span style='color:GreenYellow; font-size: 70px;'>正确! </span>","null","","","","","","","","","","","","","","","","","","","","","","","","","feedback_test","",""
"","","","","","psychophysics","152","656211","0.0-9.0-0.0-0.0-0.0-0.46","746","","j","","","","","","","","","","","","","key","j","16.62115384615362","768","428","j","true","../../test_img/22.png","朋友","matching_task","朋友","[""<img src=\""../../test_img/22.png\"" width=150 style=\""vertical-align:middle\"">---朋友"",""<img src=\""../../test_img/15.png\"" width=150 style=\""vertical-align:middle\"">---生人"",""<img src=\""../../test_img/26.png\"" width=150 style=\""vertical-align:middle\"">---自我""]","","",""
"","","","","","html-keyboard-response","153","656721","0.0-9.0-0.0-0.0-0.0-1.46","null","<span style='color:GreenYellow; font-size: 70px;'>正确! </span>","null","","","","","","","","","","","","","","","","","","","","","","","","","feedback_test","",""
"","","","","","psychophysics","154","658508","0.0-9.0-0.0-0.0-0.0-0.47","782","","j","","","","","","","","","","","","","key","j","16.619626168224734","768","428","j","true","../../test_img/15.png","生人","matching_task","生人","[""<img src=\""../../test_img/22.png\"" width=150 style=\""vertical-align:middle\"">---朋友"",""<img src=\""../../test_img/15.png\"" width=150 style=\""vertical-align:middle\"">---生人"",""<img src=\""../../test_img/26.png\"" width=150 style=\""vertical-align:middle\"">---自我""]","","",""
"","","","","","html-keyboard-response","155","659014","0.0-9.0-0.0-0.0-0.0-1.47","null","<span style='color:GreenYellow; font-size: 70px;'>正确! </span>","null","","","","","","","","","","","","","","","","","","","","","","","","","feedback_test","",""
"","","","","","psychophysics","156","660596","0.0-9.0-0.0-0.0-0.0-0.48","576","","j","","","","","","","","","","","","","key","j","16.622340425531913","768","428","f","false","../../test_img/22.png","自我","matching_task","朋友","[""<img src=\""../../test_img/22.png\"" width=150 style=\""vertical-align:middle\"">---朋友"",""<img src=\""../../test_img/15.png\"" width=150 style=\""vertical-align:middle\"">---生人"",""<img src=\""../../test_img/26.png\"" width=150 style=\""vertical-align:middle\"">---自我""]","","",""
"","","","","","html-keyboard-response","157","661106","0.0-9.0-0.0-0.0-0.0-1.48","null","<span style='color:red; font-size: 70px;'>错误! </span>","null","","","","","","","","","","","","","","","","","","","","","","","","","feedback_test","",""
"","","","","","psychophysics","158","662795","0.0-9.0-0.0-0.0-0.0-0.49","681","","j","","","","","","","","","","","","","key","j","16.621999999999534","768","428","j","true","../../test_img/15.png","生人","matching_task","生人","[""<img src=\""../../test_img/22.png\"" width=150 style=\""vertical-align:middle\"">---朋友"",""<img src=\""../../test_img/15.png\"" width=150 style=\""vertical-align:middle\"">---生人"",""<img src=\""../../test_img/26.png\"" width=150 style=\""vertical-align:middle\"">---自我""]","","",""
"","","","","","html-keyboard-response","159","663302","0.0-9.0-0.0-0.0-0.0-1.49","null","<span style='color:GreenYellow; font-size: 70px;'>正确! </span>","null","","","","","","","","","","","","","","","","","","","","","","","","","feedback_test","",""
"","","","","","psychophysics","160","665284","0.0-9.0-0.0-0.0-0.0-0.50","977","","f","","","","","","","","","","","","","key","f","16.622033898304295","768","428","f","true","../../test_img/26.png","生人","matching_task","自我","[""<img src=\""../../test_img/22.png\"" width=150 style=\""vertical-align:middle\"">---朋友"",""<img src=\""../../test_img/15.png\"" width=150 style=\""vertical-align:middle\"">---生人"",""<img src=\""../../test_img/26.png\"" width=150 style=\""vertical-align:middle\"">---自我""]","","",""
"","","","","","html-keyboard-response","161","665793","0.0-9.0-0.0-0.0-0.0-1.50","null","<span style='color:GreenYellow; font-size: 70px;'>正确! </span>","null","","","","","","","","","","","","","","","","","","","","","","","","","feedback_test","",""
"","","","","","psychophysics","162","667460","0.0-9.0-0.0-0.0-0.0-0.51","658","","j","","","","","","","","","","","","","key","j","16.620202020202257","768","428","j","true","../../test_img/22.png","朋友","matching_task","朋友","[""<img src=\""../../test_img/22.png\"" width=150 style=\""vertical-align:middle\"">---朋友"",""<img src=\""../../test_img/15.png\"" width=150 style=\""vertical-align:middle\"">---生人"",""<img src=\""../../test_img/26.png\"" width=150 style=\""vertical-align:middle\"">---自我""]","","",""
"","","","","","html-keyboard-response","163","667971","0.0-9.0-0.0-0.0-0.0-1.51","null","<span style='color:GreenYellow; font-size: 70px;'>正确! </span>","null","","","","","","","","","","","","","","","","","","","","","","","","","feedback_test","",""
"","","","","","psychophysics","164","669734","0.0-9.0-0.0-0.0-0.0-0.52","760","","f","","","","","","","","","","","","","key","f","16.620952380951937","768","428","f","true","../../test_img/22.png","生人","matching_task","朋友","[""<img src=\""../../test_img/22.png\"" width=150 style=\""vertical-align:middle\"">---朋友"",""<img src=\""../../test_img/15.png\"" width=150 style=\""vertical-align:middle\"">---生人"",""<img src=\""../../test_img/26.png\"" width=150 style=\""vertical-align:middle\"">---自我""]","","",""
"","","","","","html-keyboard-response","165","670241","0.0-9.0-0.0-0.0-0.0-1.52","null","<span style='color:GreenYellow; font-size: 70px;'>正确! </span>","null","","","","","","","","","","","","","","","","","","","","","","","","","feedback_test","",""
"","","","","","psychophysics","166","671951","0.0-9.0-0.0-0.0-0.0-0.53","700","","j","","","","","","","","","","","","","key","j","16.620792079208613","768","428","j","true","../../test_img/22.png","朋友","matching_task","朋友","[""<img src=\""../../test_img/22.png\"" width=150 style=\""vertical-align:middle\"">---朋友"",""<img src=\""../../test_img/15.png\"" width=150 style=\""vertical-align:middle\"">---生人"",""<img src=\""../../test_img/26.png\"" width=150 style=\""vertical-align:middle\"">---自我""]","","",""
"","","","","","html-keyboard-response","167","672467","0.0-9.0-0.0-0.0-0.0-1.53","null","<span style='color:GreenYellow; font-size: 70px;'>正确! </span>","null","","","","","","","","","","","","","","","","","","","","","","","","","feedback_test","",""
"","","","","","psychophysics","168","674321","0.0-9.0-0.0-0.0-0.0-0.54","845","","f","","","","","","","","","","","","","key","f","16.614486486486342","768","428","f","true","../../test_img/26.png","朋友","matching_task","自我","[""<img src=\""../../test_img/22.png\"" width=150 style=\""vertical-align:middle\"">---朋友"",""<img src=\""../../test_img/15.png\"" width=150 style=\""vertical-align:middle\"">---生人"",""<img src=\""../../test_img/26.png\"" width=150 style=\""vertical-align:middle\"">---自我""]","","",""
"","","","","","html-keyboard-response","169","674831","0.0-9.0-0.0-0.0-0.0-1.54","null","<span style='color:GreenYellow; font-size: 70px;'>正确! </span>","null","","","","","","","","","","","","","","","","","","","","","","","","","feedback_test","",""
"","","","","","psychophysics","170","676688","0.0-9.0-0.0-0.0-0.0-0.55","845","","j","","","","","","","","","","","","","key","j","16.621818181818394","768","428","j","true","../../test_img/15.png","生人","matching_task","生人","[""<img src=\""../../test_img/22.png\"" width=150 style=\""vertical-align:middle\"">---朋友"",""<img src=\""../../test_img/15.png\"" width=150 style=\""vertical-align:middle\"">---生人"",""<img src=\""../../test_img/26.png\"" width=150 style=\""vertical-align:middle\"">---自我""]","","",""
"","","","","","html-keyboard-response","171","677198","0.0-9.0-0.0-0.0-0.0-1.55","null","<span style='color:GreenYellow; font-size: 70px;'>正确! </span>","null","","","","","","","","","","","","","","","","","","","","","","","","","feedback_test","",""
"","","","","","psychophysics","172","678865","0.0-9.0-0.0-0.0-0.0-0.56","662","","j","","","","","","","","","","","","","key","j","16.620202020202257","768","428","j","true","../../test_img/26.png","自我","matching_task","自我","[""<img src=\""../../test_img/22.png\"" width=150 style=\""vertical-align:middle\"">---朋友"",""<img src=\""../../test_img/15.png\"" width=150 style=\""vertical-align:middle\"">---生人"",""<img src=\""../../test_img/26.png\"" width=150 style=\""vertical-align:middle\"">---自我""]","","",""
"","","","","","html-keyboard-response","173","679380","0.0-9.0-0.0-0.0-0.0-1.56","null","<span style='color:GreenYellow; font-size: 70px;'>正确! </span>","null","","","","","","","","","","","","","","","","","","","","","","","","","feedback_test","",""
"","","","","","psychophysics","174","681275","0.0-9.0-0.0-0.0-0.0-0.57","894","","f","","","","","","","","","","","","","key","f","16.621238938053715","768","428","f","true","../../test_img/15.png","朋友","matching_task","生人","[""<img src=\""../../test_img/22.png\"" width=150 style=\""vertical-align:middle\"">---朋友"",""<img src=\""../../test_img/15.png\"" width=150 style=\""vertical-align:middle\"">---生人"",""<img src=\""../../test_img/26.png\"" width=150 style=\""vertical-align:middle\"">---自我""]","","",""
"","","","","","html-keyboard-response","175","681784","0.0-9.0-0.0-0.0-0.0-1.57","null","<span style='color:GreenYellow; font-size: 70px;'>正确! </span>","null","","","","","","","","","","","","","","","","","","","","","","","","","feedback_test","",""
"","","","","","psychophysics","176","683650","0.0-9.0-0.0-0.0-0.0-0.58","859","","f","","","","","","","","","","","","","key","f","16.61981981981919","768","428","f","true","../../test_img/15.png","自我","matching_task","生人","[""<img src=\""../../test_img/22.png\"" width=150 style=\""vertical-align:middle\"">---朋友"",""<img src=\""../../test_img/15.png\"" width=150 style=\""vertical-align:middle\"">---生人"",""<img src=\""../../test_img/26.png\"" width=150 style=\""vertical-align:middle\"">---自我""]","","",""
"","","","","","html-keyboard-response","177","684163","0.0-9.0-0.0-0.0-0.0-1.58","null","<span style='color:GreenYellow; font-size: 70px;'>正确! </span>","null","","","","","","","","","","","","","","","","","","","","","","","","","feedback_test","",""
"","","","","","psychophysics","178","685995","0.0-9.0-0.0-0.0-0.0-0.59","827","","j","","","","","","","","","","","","","key","j","16.621100917431832","768","428","j","true","../../test_img/26.png","自我","matching_task","自我","[""<img src=\""../../test_img/22.png\"" width=150 style=\""vertical-align:middle\"">---朋友"",""<img src=\""../../test_img/15.png\"" width=150 style=\""vertical-align:middle\"">---生人"",""<img src=\""../../test_img/26.png\"" width=150 style=\""vertical-align:middle\"">---自我""]","","",""
"","","","","","html-keyboard-response","179","686500","0.0-9.0-0.0-0.0-0.0-1.59","null","<span style='color:GreenYellow; font-size: 70px;'>正确! </span>","null","","","","","","","","","","","","","","","","","","","","","","","","","feedback_test","",""
"","","","","","psychophysics","180","688253","0.0-9.0-0.0-0.0-0.0-0.60","742","","j","","","","","","","","","","","","","key","j","16.622115384616055","768","428","j","true","../../test_img/26.png","自我","matching_task","自我","[""<img src=\""../../test_img/22.png\"" width=150 style=\""vertical-align:middle\"">---朋友"",""<img src=\""../../test_img/15.png\"" width=150 style=\""vertical-align:middle\"">---生人"",""<img src=\""../../test_img/26.png\"" width=150 style=\""vertical-align:middle\"">---自我""]","","",""
"","","","","","html-keyboard-response","181","688761","0.0-9.0-0.0-0.0-0.0-1.60","null","<span style='color:GreenYellow; font-size: 70px;'>正确! </span>","null","","","","","","","","","","","","","","","","","","","","","","","","","feedback_test","",""
"","","","","","psychophysics","182","690343","0.0-9.0-0.0-0.0-0.0-0.61","574","","j","","","","","","","","","","","","","key","j","16.621276595744927","768","428","j","true","../../test_img/22.png","朋友","matching_task","朋友","[""<img src=\""../../test_img/22.png\"" width=150 style=\""vertical-align:middle\"">---朋友"",""<img src=\""../../test_img/15.png\"" width=150 style=\""vertical-align:middle\"">---生人"",""<img src=\""../../test_img/26.png\"" width=150 style=\""vertical-align:middle\"">---自我""]","","",""
"","","","","","html-keyboard-response","183","690855","0.0-9.0-0.0-0.0-0.0-1.61","null","<span style='color:GreenYellow; font-size: 70px;'>正确! </span>","null","","","","","","","","","","","","","","","","","","","","","","","","","feedback_test","",""
"","","","","","psychophysics","184","692746","0.0-9.0-0.0-0.0-0.0-0.62","880","","j","","","","","","","","","","","","","key","j","16.621428571428364","768","428","j","true","../../test_img/15.png","生人","matching_task","生人","[""<img src=\""../../test_img/22.png\"" width=150 style=\""vertical-align:middle\"">---朋友"",""<img src=\""../../test_img/15.png\"" width=150 style=\""vertical-align:middle\"">---生人"",""<img src=\""../../test_img/26.png\"" width=150 style=\""vertical-align:middle\"">---自我""]","","",""
"","","","","","html-keyboard-response","185","693258","0.0-9.0-0.0-0.0-0.0-1.62","null","<span style='color:GreenYellow; font-size: 70px;'>正确! </span>","null","","","","","","","","","","","","","","","","","","","","","","","","","feedback_test","",""
"","","","","","psychophysics","186","694950","0.0-9.0-0.0-0.0-0.0-0.63","690","","j","","","","","","","","","","","","","key","j","16.622772277227952","768","428","j","true","../../test_img/22.png","朋友","matching_task","朋友","[""<img src=\""../../test_img/22.png\"" width=150 style=\""vertical-align:middle\"">---朋友"",""<img src=\""../../test_img/15.png\"" width=150 style=\""vertical-align:middle\"">---生人"",""<img src=\""../../test_img/26.png\"" width=150 style=\""vertical-align:middle\"">---自我""]","","",""
"","","","","","html-keyboard-response","187","695457","0.0-9.0-0.0-0.0-0.0-1.63","null","<span style='color:GreenYellow; font-size: 70px;'>正确! </span>","null","","","","","","","","","","","","","","","","","","","","","","","","","feedback_test","",""
"","","","","","psychophysics","188","697560","0.0-9.0-0.0-0.0-0.0-0.64","1090","","f","","","","","","","","","","","","","key","f","16.62160000000056","768","428","f","true","../../test_img/15.png","自我","matching_task","生人","[""<img src=\""../../test_img/22.png\"" width=150 style=\""vertical-align:middle\"">---朋友"",""<img src=\""../../test_img/15.png\"" width=150 style=\""vertical-align:middle\"">---生人"",""<img src=\""../../test_img/26.png\"" width=150 style=\""vertical-align:middle\"">---自我""]","","",""
"","","","","","html-keyboard-response","189","698075","0.0-9.0-0.0-0.0-0.0-1.64","null","<span style='color:GreenYellow; font-size: 70px;'>正确! </span>","null","","","","","","","","","","","","","","","","","","","","","","","","","feedback_test","",""
"","","","","","psychophysics","190","700061","0.0-9.0-0.0-0.0-0.0-0.65","982","","f","","","","","","","","","","","","","key","f","16.6218487394958","768","428","f","true","../../test_img/22.png","生人","matching_task","朋友","[""<img src=\""../../test_img/22.png\"" width=150 style=\""vertical-align:middle\"">---朋友"",""<img src=\""../../test_img/15.png\"" width=150 style=\""vertical-align:middle\"">---生人"",""<img src=\""../../test_img/26.png\"" width=150 style=\""vertical-align:middle\"">---自我""]","","",""
"","","","","","html-keyboard-response","191","700575","0.0-9.0-0.0-0.0-0.0-1.65","null","<span style='color:GreenYellow; font-size: 70px;'>正确! </span>","null","","","","","","","","","","","","","","","","","","","","","","","","","feedback_test","",""
"","","","","","psychophysics","192","702292","0.0-9.0-0.0-0.0-0.0-0.66","702","","j","","","","","","","","","","","","","key","j","16.621568627451207","768","428","j","true","../../test_img/26.png","自我","matching_task","自我","[""<img src=\""../../test_img/22.png\"" width=150 style=\""vertical-align:middle\"">---朋友"",""<img src=\""../../test_img/15.png\"" width=150 style=\""vertical-align:middle\"">---生人"",""<img src=\""../../test_img/26.png\"" width=150 style=\""vertical-align:middle\"">---自我""]","","",""
"","","","","","html-keyboard-response","193","702807","0.0-9.0-0.0-0.0-0.0-1.66","null","<span style='color:GreenYellow; font-size: 70px;'>正确! </span>","null","","","","","","","","","","","","","","","","","","","","","","","","","feedback_test","",""
"","","","","","psychophysics","194","704655","0.0-9.0-0.0-0.0-0.0-0.67","838","","f","","","","","","","","","","","","","key","f","16.619090909090698","768","428","f","true","../../test_img/15.png","朋友","matching_task","生人","[""<img src=\""../../test_img/22.png\"" width=150 style=\""vertical-align:middle\"">---朋友"",""<img src=\""../../test_img/15.png\"" width=150 style=\""vertical-align:middle\"">---生人"",""<img src=\""../../test_img/26.png\"" width=150 style=\""vertical-align:middle\"">---自我""]","","",""
"","","","","","html-keyboard-response","195","705160","0.0-9.0-0.0-0.0-0.0-1.67","null","<span style='color:GreenYellow; font-size: 70px;'>正确! </span>","null","","","","","","","","","","","","","","","","","","","","","","","","","feedback_test","",""
"","","","","","psychophysics","196","707036","0.0-9.0-0.0-0.0-0.0-0.68","874","","f","","","","","","","","","","","","","key","f","16.620535714285715","768","428","f","true","../../test_img/26.png","朋友","matching_task","自我","[""<img src=\""../../test_img/22.png\"" width=150 style=\""vertical-align:middle\"">---朋友"",""<img src=\""../../test_img/15.png\"" width=150 style=\""vertical-align:middle\"">---生人"",""<img src=\""../../test_img/26.png\"" width=150 style=\""vertical-align:middle\"">---自我""]","","",""
"","","","","","html-keyboard-response","197","707539","0.0-9.0-0.0-0.0-0.0-1.68","null","<span style='color:GreenYellow; font-size: 70px;'>正确! </span>","null","","","","","","","","","","","","","","","","","","","","","","","","","feedback_test","",""
"","","","","","psychophysics","198","709465","0.0-9.0-0.0-0.0-0.0-0.69","912","","j","","","","","","","","","","","","","key","j","16.62368421052611","768","428","f","false","../../test_img/26.png","生人","matching_task","自我","[""<img src=\""../../test_img/22.png\"" width=150 style=\""vertical-align:middle\"">---朋友"",""<img src=\""../../test_img/15.png\"" width=150 style=\""vertical-align:middle\"">---生人"",""<img src=\""../../test_img/26.png\"" width=150 style=\""vertical-align:middle\"">---自我""]","","",""
"","","","","","html-keyboard-response","199","709969","0.0-9.0-0.0-0.0-0.0-1.69","null","<span style='color:red; font-size: 70px;'>错误! </span>","null","","","","","","","","","","","","","","","","","","","","","","","","","feedback_test","",""
"","","","","","psychophysics","200","711945","0.0-9.0-0.0-0.0-0.0-0.70","965","","j","","","","","","","","","","","","","key","j","16.620512820513618","768","428","j","true","../../test_img/15.png","生人","matching_task","生人","[""<img src=\""../../test_img/22.png\"" width=150 style=\""vertical-align:middle\"">---朋友"",""<img src=\""../../test_img/15.png\"" width=150 style=\""vertical-align:middle\"">---生人"",""<img src=\""../../test_img/26.png\"" width=150 style=\""vertical-align:middle\"">---自我""]","","",""
"","","","","","html-keyboard-response","201","712459","0.0-9.0-0.0-0.0-0.0-1.70","null","<span style='color:GreenYellow; font-size: 70px;'>正确! </span>","null","","","","","","","","","","","","","","","","","","","","","","","","","feedback_test","",""
"","","","","","psychophysics","202","714231","0.0-9.0-0.0-0.0-0.0-0.71","760","","f","","","","","","","","","","","","","key","f","16.621904761904098","768","428","f","true","../../test_img/22.png","自我","matching_task","朋友","[""<img src=\""../../test_img/22.png\"" width=150 style=\""vertical-align:middle\"">---朋友"",""<img src=\""../../test_img/15.png\"" width=150 style=\""vertical-align:middle\"">---生人"",""<img src=\""../../test_img/26.png\"" width=150 style=\""vertical-align:middle\"">---自我""]","","",""
"","","","","","html-keyboard-response","203","714733","0.0-9.0-0.0-0.0-0.0-1.71","null","<span style='color:GreenYellow; font-size: 70px;'>正确! </span>","null","","","","","","","","","","","","","","","","","","","","","","","","","feedback_test","",""
"","","","","","html-keyboard-response","204","718467","0.0-9.0-0.0-0.0-1.0","3733","<style>.context{color:white; font-size: 35px; line-height:40px}</style>                          <div><p class='context'>您正确回答了96% 的试次。</p><p class='context'>您的平均反应时为830毫秒。</p><p class='context'>请按任意键进入休息</p></div>"," ","","","","","","","","","","","","","","","","","","","","","","","","","","",""
"","","","","","html-button-response","205","730714","0.0-9.0-0.0-0.0-2.0","12246","
                    <p>知觉匹配任务中，您还剩余4组实验</p>
                    <p>现在是休息时间，当您结束休息后，您可以点击 结束休息 按钮 继续</p>
                    <p>建议休息时间还剩余<span id=""iii"">60</span>秒</p>","0","","","","","","","","","","","","","","","","","","","","","","","","","","",""
"","","","","","psychophysics","206","732581","0.0-9.0-0.0-0.0-0.1-0.72","858","","j","","","","","","","","","","","","","key","j","16.621818181818394","768","428","j","true","../../test_img/15.png","生人","matching_task","生人","[""<img src=\""../../test_img/22.png\"" width=150 style=\""vertical-align:middle\"">---朋友"",""<img src=\""../../test_img/15.png\"" width=150 style=\""vertical-align:middle\"">---生人"",""<img src=\""../../test_img/26.png\"" width=150 style=\""vertical-align:middle\"">---自我""]","","",""
"","","","","","html-keyboard-response","207","733094","0.0-9.0-0.0-0.0-0.1-1.72","null","<span style='color:GreenYellow; font-size: 70px;'>正确! </span>","null","","","","","","","","","","","","","","","","","","","","","","","","","feedback_test","",""
"","","","","","psychophysics","208","734684","0.0-9.0-0.0-0.0-0.1-0.73","583","","j","","","","","","","","","","","","","key","j","16.620000000000246","768","428","j","true","../../test_img/26.png","自我","matching_task","自我","[""<img src=\""../../test_img/22.png\"" width=150 style=\""vertical-align:middle\"">---朋友"",""<img src=\""../../test_img/15.png\"" width=150 style=\""vertical-align:middle\"">---生人"",""<img src=\""../../test_img/26.png\"" width=150 style=\""vertical-align:middle\"">---自我""]","","",""
"","","","","","html-keyboard-response","209","735194","0.0-9.0-0.0-0.0-0.1-1.73","null","<span style='color:GreenYellow; font-size: 70px;'>正确! </span>","null","","","","","","","","","","","","","","","","","","","","","","","","","feedback_test","",""
"","","","","","psychophysics","210","736986","0.0-9.0-0.0-0.0-0.1-0.74","791","","f","","","","","","","","","","","","","key","f","16.621495327102803","768","428","f","true","../../test_img/26.png","朋友","matching_task","自我","[""<img src=\""../../test_img/22.png\"" width=150 style=\""vertical-align:middle\"">---朋友"",""<img src=\""../../test_img/15.png\"" width=150 style=\""vertical-align:middle\"">---生人"",""<img src=\""../../test_img/26.png\"" width=150 style=\""vertical-align:middle\"">---自我""]","","",""
"","","","","","html-keyboard-response","211","737496","0.0-9.0-0.0-0.0-0.1-1.74","null","<span style='color:GreenYellow; font-size: 70px;'>正确! </span>","null","","","","","","","","","","","","","","","","","","","","","","","","","feedback_test","",""
"","","","","","psychophysics","212","739251","0.0-9.0-0.0-0.0-0.1-0.75","746","","f","","","","","","","","","","","","","key","f","16.622115384614936","768","428","f","true","../../test_img/15.png","自我","matching_task","生人","[""<img src=\""../../test_img/22.png\"" width=150 style=\""vertical-align:middle\"">---朋友"",""<img src=\""../../test_img/15.png\"" width=150 style=\""vertical-align:middle\"">---生人"",""<img src=\""../../test_img/26.png\"" width=150 style=\""vertical-align:middle\"">---自我""]","","",""
"","","","","","html-keyboard-response","213","739755","0.0-9.0-0.0-0.0-0.1-1.75","null","<span style='color:GreenYellow; font-size: 70px;'>正确! </span>","null","","","","","","","","","","","","","","","","","","","","","","","","","feedback_test","",""
"","","","","","psychophysics","214","741338","0.0-9.0-0.0-0.0-0.1-0.76","572","","j","","","","","","","","","","","","","key","j","16.621276595744927","768","428","j","true","../../test_img/26.png","自我","matching_task","自我","[""<img src=\""../../test_img/22.png\"" width=150 style=\""vertical-align:middle\"">---朋友"",""<img src=\""../../test_img/15.png\"" width=150 style=\""vertical-align:middle\"">---生人"",""<img src=\""../../test_img/26.png\"" width=150 style=\""vertical-align:middle\"">---自我""]","","",""
"","","","","","html-keyboard-response","215","741855","0.0-9.0-0.0-0.0-0.1-1.76","null","<span style='color:GreenYellow; font-size: 70px;'>正确! </span>","null","","","","","","","","","","","","","","","","","","","","","","","","","feedback_test","",""
"","","","","","psychophysics","216","743577","0.0-9.0-0.0-0.0-0.1-0.77","717","","f","","","","","","","","","","","","","key","f","16.618446601942427","768","428","f","true","../../test_img/22.png","生人","matching_task","朋友","[""<img src=\""../../test_img/22.png\"" width=150 style=\""vertical-align:middle\"">---朋友"",""<img src=\""../../test_img/15.png\"" width=150 style=\""vertical-align:middle\"">---生人"",""<img src=\""../../test_img/26.png\"" width=150 style=\""vertical-align:middle\"">---自我""]","","",""
"","","","","","html-keyboard-response","217","744080","0.0-9.0-0.0-0.0-0.1-1.77","null","<span style='color:GreenYellow; font-size: 70px;'>正确! </span>","null","","","","","","","","","","","","","","","","","","","","","","","","","feedback_test","",""
"","","","","","psychophysics","218","746029","0.0-9.0-0.0-0.0-0.1-0.78","942","","f","","","","","","","","","","","","","key","f","16.620689655172413","768","428","f","true","../../test_img/15.png","朋友","matching_task","生人","[""<img src=\""../../test_img/22.png\"" width=150 style=\""vertical-align:middle\"">---朋友"",""<img src=\""../../test_img/15.png\"" width=150 style=\""vertical-align:middle\"">---生人"",""<img src=\""../../test_img/26.png\"" width=150 style=\""vertical-align:middle\"">---自我""]","","",""
"","","","","","html-keyboard-response","219","746544","0.0-9.0-0.0-0.0-0.1-1.78","null","<span style='color:GreenYellow; font-size: 70px;'>正确! </span>","null","","","","","","","","","","","","","","","","","","","","","","","","","feedback_test","",""
"","","","","","psychophysics","220","748257","0.0-9.0-0.0-0.0-0.1-0.79","710","","f","","","","","","","","","","","","","key","f","16.620588235294573","768","428","f","true","../../test_img/22.png","自我","matching_task","朋友","[""<img src=\""../../test_img/22.png\"" width=150 style=\""vertical-align:middle\"">---朋友"",""<img src=\""../../test_img/15.png\"" width=150 style=\""vertical-align:middle\"">---生人"",""<img src=\""../../test_img/26.png\"" width=150 style=\""vertical-align:middle\"">---自我""]","","",""
"","","","","","html-keyboard-response","221","748760","0.0-9.0-0.0-0.0-0.1-1.79","null","<span style='color:GreenYellow; font-size: 70px;'>正确! </span>","null","","","","","","","","","","","","","","","","","","","","","","","","","feedback_test","",""
"","","","","","psychophysics","222","750387","0.0-9.0-0.0-0.0-0.1-0.80","615","","j","","","","","","","","","","","","","key","j","16.621875000000728","768","428","j","true","../../test_img/22.png","朋友","matching_task","朋友","[""<img src=\""../../test_img/22.png\"" width=150 style=\""vertical-align:middle\"">---朋友"",""<img src=\""../../test_img/15.png\"" width=150 style=\""vertical-align:middle\"">---生人"",""<img src=\""../../test_img/26.png\"" width=150 style=\""vertical-align:middle\"">---自我""]","","",""
"","","","","","html-keyboard-response","223","750896","0.0-9.0-0.0-0.0-0.1-1.80","null","<span style='color:GreenYellow; font-size: 70px;'>正确! </span>","null","","","","","","","","","","","","","","","","","","","","","","","","","feedback_test","",""
"","","","","","psychophysics","224","752690","0.0-9.0-0.0-0.0-0.1-0.81","788","","j","","","","","","","","","","","","","key","j","16.621495327102803","768","428","j","true","../../test_img/15.png","生人","matching_task","生人","[""<img src=\""../../test_img/22.png\"" width=150 style=\""vertical-align:middle\"">---朋友"",""<img src=\""../../test_img/15.png\"" width=150 style=\""vertical-align:middle\"">---生人"",""<img src=\""../../test_img/26.png\"" width=150 style=\""vertical-align:middle\"">---自我""]","","",""
"","","","","","html-keyboard-response","225","753197","0.0-9.0-0.0-0.0-0.1-1.81","null","<span style='color:GreenYellow; font-size: 70px;'>正确! </span>","null","","","","","","","","","","","","","","","","","","","","","","","","","feedback_test","",""
"","","","","","psychophysics","226","754817","0.0-9.0-0.0-0.0-0.1-0.82","605","","j","","","","","","","","","","","","","key","j","16.620833333334303","768","428","j","true","../../test_img/22.png","朋友","matching_task","朋友","[""<img src=\""../../test_img/22.png\"" width=150 style=\""vertical-align:middle\"">---朋友"",""<img src=\""../../test_img/15.png\"" width=150 style=\""vertical-align:middle\"">---生人"",""<img src=\""../../test_img/26.png\"" width=150 style=\""vertical-align:middle\"">---自我""]","","",""
"","","","","","html-keyboard-response","227","755331","0.0-9.0-0.0-0.0-0.1-1.82","null","<span style='color:GreenYellow; font-size: 70px;'>正确! </span>","null","","","","","","","","","","","","","","","","","","","","","","","","","feedback_test","",""
"","","","","","psychophysics","228","757042","0.0-9.0-0.0-0.0-0.1-0.83","702","","f","","","","","","","","","","","","","key","f","16.621568627451207","768","428","f","true","../../test_img/26.png","生人","matching_task","自我","[""<img src=\""../../test_img/22.png\"" width=150 style=\""vertical-align:middle\"">---朋友"",""<img src=\""../../test_img/15.png\"" width=150 style=\""vertical-align:middle\"">---生人"",""<img src=\""../../test_img/26.png\"" width=150 style=\""vertical-align:middle\"">---自我""]","","",""
"","","","","","html-keyboard-response","229","757548","0.0-9.0-0.0-0.0-0.1-1.83","null","<span style='color:GreenYellow; font-size: 70px;'>正确! </span>","null","","","","","","","","","","","","","","","","","","","","","","","","","feedback_test","",""
"","","","","","psychophysics","230","759258","0.0-9.0-0.0-0.0-0.1-0.84","707","","f","","","","","","","","","","","","","key","f","16.621568627451207","768","428","f","true","../../test_img/22.png","自我","matching_task","朋友","[""<img src=\""../../test_img/22.png\"" width=150 style=\""vertical-align:middle\"">---朋友"",""<img src=\""../../test_img/15.png\"" width=150 style=\""vertical-align:middle\"">---生人"",""<img src=\""../../test_img/26.png\"" width=150 style=\""vertical-align:middle\"">---自我""]","","",""
"","","","","","html-keyboard-response","231","759761","0.0-9.0-0.0-0.0-0.1-1.84","null","<span style='color:GreenYellow; font-size: 70px;'>正确! </span>","null","","","","","","","","","","","","","","","","","","","","","","","","","feedback_test","",""
"","","","","","psychophysics","232","761572","0.0-9.0-0.0-0.0-0.1-0.85","801","","f","","","","","","","","","","","","","key","f","16.6158148148151","768","428","f","true","../../test_img/15.png","朋友","matching_task","生人","[""<img src=\""../../test_img/22.png\"" width=150 style=\""vertical-align:middle\"">---朋友"",""<img src=\""../../test_img/15.png\"" width=150 style=\""vertical-align:middle\"">---生人"",""<img src=\""../../test_img/26.png\"" width=150 style=\""vertical-align:middle\"">---自我""]","","",""
"","","","","","html-keyboard-response","233","762082","0.0-9.0-0.0-0.0-0.1-1.85","null","<span style='color:GreenYellow; font-size: 70px;'>正确! </span>","null","","","","","","","","","","","","","","","","","","","","","","","","","feedback_test","",""
"","","","","","psychophysics","234","763933","0.0-9.0-0.0-0.0-0.1-0.86","845","","f","","","","","","","","","","","","","key","f","16.621818181818394","768","428","f","true","../../test_img/26.png","朋友","matching_task","自我","[""<img src=\""../../test_img/22.png\"" width=150 style=\""vertical-align:middle\"">---朋友"",""<img src=\""../../test_img/15.png\"" width=150 style=\""vertical-align:middle\"">---生人"",""<img src=\""../../test_img/26.png\"" width=150 style=\""vertical-align:middle\"">---自我""]","","",""
"","","","","","html-keyboard-response","235","764448","0.0-9.0-0.0-0.0-0.1-1.86","null","<span style='color:GreenYellow; font-size: 70px;'>正确! </span>","null","","","","","","","","","","","","","","","","","","","","","","","","","feedback_test","",""
"","","","","","psychophysics","236","766090","0.0-9.0-0.0-0.0-0.1-0.87","642","","j","","","","","","","","","","","","","key","j","16.621428571428808","768","428","j","true","../../test_img/22.png","朋友","matching_task","朋友","[""<img src=\""../../test_img/22.png\"" width=150 style=\""vertical-align:middle\"">---朋友"",""<img src=\""../../test_img/15.png\"" width=150 style=\""vertical-align:middle\"">---生人"",""<img src=\""../../test_img/26.png\"" width=150 style=\""vertical-align:middle\"">---自我""]","","",""
"","","","","","html-keyboard-response","237","766605","0.0-9.0-0.0-0.0-0.1-1.87","null","<span style='color:GreenYellow; font-size: 70px;'>正确! </span>","null","","","","","","","","","","","","","","","","","","","","","","","","","feedback_test","",""
"","","","","","psychophysics","238","768432","0.0-9.0-0.0-0.0-0.1-0.88","823","","f","","","","","","","","","","","","","key","f","16.62293577981673","768","428","f","true","../../test_img/22.png","生人","matching_task","朋友","[""<img src=\""../../test_img/22.png\"" width=150 style=\""vertical-align:middle\"">---朋友"",""<img src=\""../../test_img/15.png\"" width=150 style=\""vertical-align:middle\"">---生人"",""<img src=\""../../test_img/26.png\"" width=150 style=\""vertical-align:middle\"">---自我""]","","",""
"","","","","","html-keyboard-response","239","768943","0.0-9.0-0.0-0.0-0.1-1.88","null","<span style='color:GreenYellow; font-size: 70px;'>正确! </span>","null","","","","","","","","","","","","","","","","","","","","","","","","","feedback_test","",""
"","","","","","psychophysics","240","770558","0.0-9.0-0.0-0.0-0.1-0.89","605","","j","","","","","","","","","","","","","key","j","16.620833333334303","768","428","j","true","../../test_img/26.png","自我","matching_task","自我","[""<img src=\""../../test_img/22.png\"" width=150 style=\""vertical-align:middle\"">---朋友"",""<img src=\""../../test_img/15.png\"" width=150 style=\""vertical-align:middle\"">---生人"",""<img src=\""../../test_img/26.png\"" width=150 style=\""vertical-align:middle\"">---自我""]","","",""
"","","","","","html-keyboard-response","241","771061","0.0-9.0-0.0-0.0-0.1-1.89","null","<span style='color:GreenYellow; font-size: 70px;'>正确! </span>","null","","","","","","","","","","","","","","","","","","","","","","","","","feedback_test","",""
"","","","","","psychophysics","242","772788","0.0-9.0-0.0-0.0-0.1-0.90","725","","j","","","","","","","","","","","","","key","j","16.62135922330097","768","428","j","true","../../test_img/15.png","生人","matching_task","生人","[""<img src=\""../../test_img/22.png\"" width=150 style=\""vertical-align:middle\"">---朋友"",""<img src=\""../../test_img/15.png\"" width=150 style=\""vertical-align:middle\"">---生人"",""<img src=\""../../test_img/26.png\"" width=150 style=\""vertical-align:middle\"">---自我""]","","",""
"","","","","","html-keyboard-response","243","773300","0.0-9.0-0.0-0.0-0.1-1.90","null","<span style='color:GreenYellow; font-size: 70px;'>正确! </span>","null","","","","","","","","","","","","","","","","","","","","","","","","","feedback_test","",""
"","","","","","psychophysics","244","775033","0.0-9.0-0.0-0.0-0.1-0.91","726","","f","","","","","","","","","","","","","key","f","16.62135922330097","768","428","j","false","../../test_img/15.png","生人","matching_task","生人","[""<img src=\""../../test_img/22.png\"" width=150 style=\""vertical-align:middle\"">---朋友"",""<img src=\""../../test_img/15.png\"" width=150 style=\""vertical-align:middle\"">---生人"",""<img src=\""../../test_img/26.png\"" width=150 style=\""vertical-align:middle\"">---自我""]","","",""
"","","","","","html-keyboard-response","245","775539","0.0-9.0-0.0-0.0-0.1-1.91","null","<span style='color:red; font-size: 70px;'>错误! </span>","null","","","","","","","","","","","","","","","","","","","","","","","","","feedback_test","",""
"","","","","","psychophysics","246","777163","0.0-9.0-0.0-0.0-0.1-0.92","616","","j","","","","","","","","","","","","","key","j","16.621875000000728","768","428","j","true","../../test_img/22.png","朋友","matching_task","朋友","[""<img src=\""../../test_img/22.png\"" width=150 style=\""vertical-align:middle\"">---朋友"",""<img src=\""../../test_img/15.png\"" width=150 style=\""vertical-align:middle\"">---生人"",""<img src=\""../../test_img/26.png\"" width=150 style=\""vertical-align:middle\"">---自我""]","","",""
"","","","","","html-keyboard-response","247","777666","0.0-9.0-0.0-0.0-0.1-1.92","null","<span style='color:GreenYellow; font-size: 70px;'>正确! </span>","null","","","","","","","","","","","","","","","","","","","","","","","","","feedback_test","",""
"","","","","","psychophysics","248","779491","0.0-9.0-0.0-0.0-0.1-0.93","814","","f","","","","","","","","","","","","","key","f","16.62129629629716","768","428","f","true","../../test_img/26.png","生人","matching_task","自我","[""<img src=\""../../test_img/22.png\"" width=150 style=\""vertical-align:middle\"">---朋友"",""<img src=\""../../test_img/15.png\"" width=150 style=\""vertical-align:middle\"">---生人"",""<img src=\""../../test_img/26.png\"" width=150 style=\""vertical-align:middle\"">---自我""]","","",""
"","","","","","html-keyboard-response","249","780000","0.0-9.0-0.0-0.0-0.1-1.93","null","<span style='color:GreenYellow; font-size: 70px;'>正确! </span>","null","","","","","","","","","","","","","","","","","","","","","","","","","feedback_test","",""
"","","","","","psychophysics","250","781601","0.0-9.0-0.0-0.0-0.1-0.94","599","","j","","","","","","","","","","","","","key","j","16.622105263158875","768","428","j","true","../../test_img/26.png","自我","matching_task","自我","[""<img src=\""../../test_img/22.png\"" width=150 style=\""vertical-align:middle\"">---朋友"",""<img src=\""../../test_img/15.png\"" width=150 style=\""vertical-align:middle\"">---生人"",""<img src=\""../../test_img/26.png\"" width=150 style=\""vertical-align:middle\"">---自我""]","","",""
"","","","","","html-keyboard-response","251","782110","0.0-9.0-0.0-0.0-0.1-1.94","null","<span style='color:GreenYellow; font-size: 70px;'>正确! </span>","null","","","","","","","","","","","","","","","","","","","","","","","","","feedback_test","",""
"","","","","","psychophysics","252","783894","0.0-9.0-0.0-0.0-0.1-0.95","782","","f","","","","","","","","","","","","","key","f","16.620754716980475","768","428","f","true","../../test_img/15.png","自我","matching_task","生人","[""<img src=\""../../test_img/22.png\"" width=150 style=\""vertical-align:middle\"">---朋友"",""<img src=\""../../test_img/15.png\"" width=150 style=\""vertical-align:middle\"">---生人"",""<img src=\""../../test_img/26.png\"" width=150 style=\""vertical-align:middle\"">---自我""]","","",""
"","","","","","html-keyboard-response","253","784407","0.0-9.0-0.0-0.0-0.1-1.95","null","<span style='color:GreenYellow; font-size: 70px;'>正确! </span>","null","","","","","","","","","","","","","","","","","","","","","","","","","feedback_test","",""
"","","","","","psychophysics","254","786052","0.0-9.0-0.0-0.0-0.1-0.96","641","","j","","","","","","","","","","","","","key","j","16.623469387754863","768","428","j","true","../../test_img/26.png","自我","matching_task","自我","[""<img src=\""../../test_img/22.png\"" width=150 style=\""vertical-align:middle\"">---朋友"",""<img src=\""../../test_img/15.png\"" width=150 style=\""vertical-align:middle\"">---生人"",""<img src=\""../../test_img/26.png\"" width=150 style=\""vertical-align:middle\"">---自我""]","","",""
"","","","","","html-keyboard-response","255","786565","0.0-9.0-0.0-0.0-0.1-1.96","null","<span style='color:GreenYellow; font-size: 70px;'>正确! </span>","null","","","","","","","","","","","","","","","","","","","","","","","","","feedback_test","",""
"","","","","","psychophysics","256","788267","0.0-9.0-0.0-0.0-0.1-0.97","695","","j","","","","","","","","","","","","","key","j","16.61980198019779","768","428","j","true","../../test_img/22.png","朋友","matching_task","朋友","[""<img src=\""../../test_img/22.png\"" width=150 style=\""vertical-align:middle\"">---朋友"",""<img src=\""../../test_img/15.png\"" width=150 style=\""vertical-align:middle\"">---生人"",""<img src=\""../../test_img/26.png\"" width=150 style=\""vertical-align:middle\"">---自我""]","","",""
"","","","","","html-keyboard-response","257","788783","0.0-9.0-0.0-0.0-0.1-1.97","null","<span style='color:GreenYellow; font-size: 70px;'>正确! </span>","null","","","","","","","","","","","","","","","","","","","","","","","","","feedback_test","",""
"","","","","","psychophysics","258","790403","0.0-9.0-0.0-0.0-0.1-0.98","607","","j","","","","","","","","","","","","","key","j","16.615546391752414","768","428","j","true","../../test_img/15.png","生人","matching_task","生人","[""<img src=\""../../test_img/22.png\"" width=150 style=\""vertical-align:middle\"">---朋友"",""<img src=\""../../test_img/15.png\"" width=150 style=\""vertical-align:middle\"">---生人"",""<img src=\""../../test_img/26.png\"" width=150 style=\""vertical-align:middle\"">---自我""]","","",""
"","","","","","html-keyboard-response","259","790917","0.0-9.0-0.0-0.0-0.1-1.98","null","<span style='color:GreenYellow; font-size: 70px;'>正确! </span>","null","","","","","","","","","","","","","","","","","","","","","","","","","feedback_test","",""
"","","","","","psychophysics","260","792619","0.0-9.0-0.0-0.0-0.1-0.99","692","","f","","","","","","","","","","","","","key","f","16.622772277227952","768","428","f","true","../../test_img/22.png","生人","matching_task","朋友","[""<img src=\""../../test_img/22.png\"" width=150 style=\""vertical-align:middle\"">---朋友"",""<img src=\""../../test_img/15.png\"" width=150 style=\""vertical-align:middle\"">---生人"",""<img src=\""../../test_img/26.png\"" width=150 style=\""vertical-align:middle\"">---自我""]","","",""
"","","","","","html-keyboard-response","261","793120","0.0-9.0-0.0-0.0-0.1-1.99","null","<span style='color:GreenYellow; font-size: 70px;'>正确! </span>","null","","","","","","","","","","","","","","","","","","","","","","","","","feedback_test","",""
"","","","","","psychophysics","262","795011","0.0-9.0-0.0-0.0-0.1-0.100","879","","f","","","","","","","","","","","","","key","f","16.62212389380572","768","428","f","true","../../test_img/15.png","自我","matching_task","生人","[""<img src=\""../../test_img/22.png\"" width=150 style=\""vertical-align:middle\"">---朋友"",""<img src=\""../../test_img/15.png\"" width=150 style=\""vertical-align:middle\"">---生人"",""<img src=\""../../test_img/26.png\"" width=150 style=\""vertical-align:middle\"">---自我""]","","",""
"","","","","","html-keyboard-response","263","795517","0.0-9.0-0.0-0.0-0.1-1.100","null","<span style='color:GreenYellow; font-size: 70px;'>正确! </span>","null","","","","","","","","","","","","","","","","","","","","","","","","","feedback_test","",""
