"success","timeout","failed_images","failed_audio","failed_video","trial_type","trial_index","time_elapsed","internal_node_id","rt","stimulus","response","value","item_width_mm","item_height_mm","item_width_px","px2mm","view_dist_mm","item_width_deg","px2deg","scale_factor","win_width_deg","win_height_deg","view_history","response_type","key_press","avg_frame_time","center_x","center_y","correct_response","correct","Image","word","condition","shape","association","screen_id","LeftLable","RightLable"
"true","false","[]","[]","[]","preload","0","54","0.0-0.0","","","","","","","","","","","","","","","","","","","","","","","","","","","","","",""
"","","","","","html-keyboard-response","1","15567","0.0-1.0","15511","
     <p>您好，欢迎参加本次实验。</p>
     <p>为充分保障您的权利，请确保您已经知晓并同意《参与实验同意书》以及《数据公开知情同意书》。</p>
     <p>如果您未见过上述内容，请咨询实验员。</p>
     <p>如果您选择继续实验，则表示您已经清楚两份知情同意书的内容并同意。</p>
     <p> <div style = ""color: green""><按任意键至下页></div> </p>
     ","audiovolumeup","","","","","","","","","","","","","","","","","","","","","","","","","","",""
"","","","","","html-keyboard-response","2","16540","0.0-2.0","973","
     <p>本实验首先需要您填写一些基本个人信息。</p>
     <p> <div style = ""color: green""><按任意键至下页></div></p>
     ","audiovolumeup","","","","","","","","","","","","","","","","","","","","","","","","","","",""
"","","","","","call-function","3","16541","0.0-3.0-0.0","","","","","","","","","","","","","","","","","","","","","","","","","","","","","",""
"","","","","","survey-html-form","4","98102","0.0-3.0-1.0","81557","","{""Q0"":""25""}","","","","","","","","","","","","","","","","","","","","","","","","","","",""
"","","","","","html-button-response","5","99173","0.0-3.0-2.0","1069","<p style = 'color : white'>您的性别</p>","0","","","","","","","","","","","","","","","","","","","","","","","","","","",""
"","","","","","survey-html-form","6","103597","0.0-3.0-3.0","4423","","{""Q0"":""2004""}","","","","","","","","","","","","","","","","","","","","","","","","","","",""
"","","","","","survey-html-form","7","107101","0.0-3.0-4.0","3503","","{""Q0"":""5""}","","","","","","","","","","","","","","","","","","","","","","","","","","",""
"","","","","","virtual-chinrest","8","298526","0.0-4.0","191422","","","","85.6","53.98","410.32242433349654","4.798685979493434","596.62","8.206448486669931","50","0.8627361777144319","25.6","14.4","","","","","","","","","","","","","","","",""
"true","","","","","fullscreen","9","301630","0.0-5.0","","","","","","","","","","","","","","","","","","","","","","","","","","","","","",""
"","","","","","instructions","10","349628","0.0-6.0","47998","","","","","","","","","","","","","","[{""page_index"":0,""viewing_time"":13150},{""page_index"":1,""viewing_time"":9232},{""page_index"":2,""viewing_time"":13432},{""page_index"":3,""viewing_time"":5824},{""page_index"":4,""viewing_time"":6360}]","","","","","","","","","","","","","","",""
"","","","","","psychophysics","11","351720","0.0-7.0-0.0-0.0","1086","","f","","","","","","","","","","","","","key","f","16.66480000000028","640","356","f","true","../../test_img/22.png","自我","prac_matching_task","生人","[""<img src=\""../../test_img/15.png\"" width=150 style=\""vertical-align:middle\"">---自我"",""<img src=\""../../test_img/26.png\"" width=150 style=\""vertical-align:middle\"">---朋友"",""<img src=\""../../test_img/22.png\"" width=150 style=\""vertical-align:middle\"">---生人""]","","",""
"","","","","","html-keyboard-response","12","352035","0.0-7.0-0.0-1.0","null","<span style='color:GreenYellow; font-size: 70px;'>正确! </span>","null","","","","","","","","","","","","","","","","","","","","","","","","","feedback_test","",""
"","","","","","psychophysics","13","353632","0.0-7.0-0.0-0.1","596","","f","","","","","","","","","","","","","key","f","16.6585106382975","640","356","j","false","../../test_img/15.png","自我","prac_matching_task","自我","[""<img src=\""../../test_img/15.png\"" width=150 style=\""vertical-align:middle\"">---自我"",""<img src=\""../../test_img/26.png\"" width=150 style=\""vertical-align:middle\"">---朋友"",""<img src=\""../../test_img/22.png\"" width=150 style=\""vertical-align:middle\"">---生人""]","","",""
"","","","","","html-keyboard-response","14","353935","0.0-7.0-0.0-1.1","null","<span style='color:red; font-size: 70px;'>错误! </span>","null","","","","","","","","","","","","","","","","","","","","","","","","","feedback_test","",""
"","","","","","psychophysics","15","356452","0.0-7.0-0.0-0.2","null","","null","","","","","","","","","","","","","key","null","16.664429530201343","640","356","f","false","../../test_img/26.png","自我","prac_matching_task","朋友","[""<img src=\""../../test_img/15.png\"" width=150 style=\""vertical-align:middle\"">---自我"",""<img src=\""../../test_img/26.png\"" width=150 style=\""vertical-align:middle\"">---朋友"",""<img src=\""../../test_img/22.png\"" width=150 style=\""vertical-align:middle\"">---生人""]","","",""
"","","","","","html-keyboard-response","16","356765","0.0-7.0-0.0-1.2","null","<span class='add_' style='color:yellow; font-size: 70px;'> 太慢! </span>","null","","","","","","","","","","","","","","","","","","","","","","","","","feedback_test","",""
"","","","","","psychophysics","17","358757","0.0-7.0-0.0-0.3","989","","f","","","","","","","","","","","","","key","f","16.66386554621849","640","356","j","false","../../test_img/22.png","生人","prac_matching_task","生人","[""<img src=\""../../test_img/15.png\"" width=150 style=\""vertical-align:middle\"">---自我"",""<img src=\""../../test_img/26.png\"" width=150 style=\""vertical-align:middle\"">---朋友"",""<img src=\""../../test_img/22.png\"" width=150 style=\""vertical-align:middle\"">---生人""]","","",""
"","","","","","html-keyboard-response","18","359069","0.0-7.0-0.0-1.3","null","<span style='color:red; font-size: 70px;'>错误! </span>","null","","","","","","","","","","","","","","","","","","","","","","","","","feedback_test","",""
"","","","","","psychophysics","19","361190","0.0-7.0-0.0-0.4","1110","","f","","","","","","","","","","","","","key","f","16.665079365079272","640","356","f","true","../../test_img/26.png","生人","prac_matching_task","朋友","[""<img src=\""../../test_img/15.png\"" width=150 style=\""vertical-align:middle\"">---自我"",""<img src=\""../../test_img/26.png\"" width=150 style=\""vertical-align:middle\"">---朋友"",""<img src=\""../../test_img/22.png\"" width=150 style=\""vertical-align:middle\"">---生人""]","","",""
"","","","","","html-keyboard-response","20","361494","0.0-7.0-0.0-1.4","null","<span style='color:GreenYellow; font-size: 70px;'>正确! </span>","null","","","","","","","","","","","","","","","","","","","","","","","","","feedback_test","",""
"","","","","","psychophysics","21","363766","0.0-7.0-0.0-0.5","1265","","j","","","","","","","","","","","","","key","j","16.6651851851851","640","356","f","false","../../test_img/22.png","朋友","prac_matching_task","生人","[""<img src=\""../../test_img/15.png\"" width=150 style=\""vertical-align:middle\"">---自我"",""<img src=\""../../test_img/26.png\"" width=150 style=\""vertical-align:middle\"">---朋友"",""<img src=\""../../test_img/22.png\"" width=150 style=\""vertical-align:middle\"">---生人""]","","",""
"","","","","","html-keyboard-response","22","364080","0.0-7.0-0.0-1.5","null","<span style='color:red; font-size: 70px;'>错误! </span>","null","","","","","","","","","","","","","","","","","","","","","","","","","feedback_test","",""
"","","","","","psychophysics","23","366279","0.0-7.0-0.0-0.6","1195","","f","","","","","","","","","","","","","key","f","16.66412213740458","640","356","f","true","../../test_img/15.png","生人","prac_matching_task","自我","[""<img src=\""../../test_img/15.png\"" width=150 style=\""vertical-align:middle\"">---自我"",""<img src=\""../../test_img/26.png\"" width=150 style=\""vertical-align:middle\"">---朋友"",""<img src=\""../../test_img/22.png\"" width=150 style=\""vertical-align:middle\"">---生人""]","","",""
"","","","","","html-keyboard-response","24","366591","0.0-7.0-0.0-1.6","null","<span style='color:GreenYellow; font-size: 70px;'>正确! </span>","null","","","","","","","","","","","","","","","","","","","","","","","","","feedback_test","",""
"","","","","","psychophysics","25","369002","0.0-7.0-0.0-0.7","1402","","f","","","","","","","","","","","","","key","f","16.664583333333415","640","356","j","false","../../test_img/26.png","朋友","prac_matching_task","朋友","[""<img src=\""../../test_img/15.png\"" width=150 style=\""vertical-align:middle\"">---自我"",""<img src=\""../../test_img/26.png\"" width=150 style=\""vertical-align:middle\"">---朋友"",""<img src=\""../../test_img/22.png\"" width=150 style=\""vertical-align:middle\"">---生人""]","","",""
"","","","","","html-keyboard-response","26","369309","0.0-7.0-0.0-1.7","null","<span style='color:red; font-size: 70px;'>错误! </span>","null","","","","","","","","","","","","","","","","","","","","","","","","","feedback_test","",""
"","","","","","psychophysics","27","371523","0.0-7.0-0.0-0.8","1206","","j","","","","","","","","","","","","","key","j","16.664393939393587","640","356","f","false","../../test_img/15.png","朋友","prac_matching_task","自我","[""<img src=\""../../test_img/15.png\"" width=150 style=\""vertical-align:middle\"">---自我"",""<img src=\""../../test_img/26.png\"" width=150 style=\""vertical-align:middle\"">---朋友"",""<img src=\""../../test_img/22.png\"" width=150 style=\""vertical-align:middle\"">---生人""]","","",""
"","","","","","html-keyboard-response","28","371825","0.0-7.0-0.0-1.8","null","<span style='color:red; font-size: 70px;'>错误! </span>","null","","","","","","","","","","","","","","","","","","","","","","","","","feedback_test","",""
"","","","","","psychophysics","29","374333","0.0-7.0-0.0-0.9","null","","null","","","","","","","","","","","","","key","null","16.664429530201343","640","356","j","false","../../test_img/22.png","生人","prac_matching_task","生人","[""<img src=\""../../test_img/15.png\"" width=150 style=\""vertical-align:middle\"">---自我"",""<img src=\""../../test_img/26.png\"" width=150 style=\""vertical-align:middle\"">---朋友"",""<img src=\""../../test_img/22.png\"" width=150 style=\""vertical-align:middle\"">---生人""]","","",""
"","","","","","html-keyboard-response","30","374645","0.0-7.0-0.0-1.9","null","<span class='add_' style='color:yellow; font-size: 70px;'> 太慢! </span>","null","","","","","","","","","","","","","","","","","","","","","","","","","feedback_test","",""
"","","","","","psychophysics","31","376618","0.0-7.0-0.0-0.10","968","","f","","","","","","","","","","","","","key","f","16.664406779661213","640","356","j","false","../../test_img/15.png","自我","prac_matching_task","自我","[""<img src=\""../../test_img/15.png\"" width=150 style=\""vertical-align:middle\"">---自我"",""<img src=\""../../test_img/26.png\"" width=150 style=\""vertical-align:middle\"">---朋友"",""<img src=\""../../test_img/22.png\"" width=150 style=\""vertical-align:middle\"">---生人""]","","",""
"","","","","","html-keyboard-response","32","376932","0.0-7.0-0.0-1.10","null","<span style='color:red; font-size: 70px;'>错误! </span>","null","","","","","","","","","","","","","","","","","","","","","","","","","feedback_test","",""
"","","","","","psychophysics","33","379110","0.0-7.0-0.0-0.11","1177","","f","","","","","","","","","","","","","key","f","16.661240310077428","640","356","j","false","../../test_img/26.png","朋友","prac_matching_task","朋友","[""<img src=\""../../test_img/15.png\"" width=150 style=\""vertical-align:middle\"">---自我"",""<img src=\""../../test_img/26.png\"" width=150 style=\""vertical-align:middle\"">---朋友"",""<img src=\""../../test_img/22.png\"" width=150 style=\""vertical-align:middle\"">---生人""]","","",""
"","","","","","html-keyboard-response","34","379421","0.0-7.0-0.0-1.11","null","<span style='color:red; font-size: 70px;'>错误! </span>","null","","","","","","","","","","","","","","","","","","","","","","","","","feedback_test","",""
"","","","","","psychophysics","35","381687","0.0-7.0-0.0-0.12","1262","","j","","","","","","","","","","","","","key","j","16.66444444444453","640","356","j","true","../../test_img/26.png","朋友","prac_matching_task","朋友","[""<img src=\""../../test_img/15.png\"" width=150 style=\""vertical-align:middle\"">---自我"",""<img src=\""../../test_img/26.png\"" width=150 style=\""vertical-align:middle\"">---朋友"",""<img src=\""../../test_img/22.png\"" width=150 style=\""vertical-align:middle\"">---生人""]","","",""
"","","","","","html-keyboard-response","36","381995","0.0-7.0-0.0-1.12","null","<span style='color:GreenYellow; font-size: 70px;'>正确! </span>","null","","","","","","","","","","","","","","","","","","","","","","","","","feedback_test","",""
"","","","","","psychophysics","37","384498","0.0-7.0-0.0-0.13","null","","null","","","","","","","","","","","","","key","null","16.664429530201343","640","356","f","false","../../test_img/26.png","自我","prac_matching_task","朋友","[""<img src=\""../../test_img/15.png\"" width=150 style=\""vertical-align:middle\"">---自我"",""<img src=\""../../test_img/26.png\"" width=150 style=\""vertical-align:middle\"">---朋友"",""<img src=\""../../test_img/22.png\"" width=150 style=\""vertical-align:middle\"">---生人""]","","",""
"","","","","","html-keyboard-response","38","384807","0.0-7.0-0.0-1.13","null","<span class='add_' style='color:yellow; font-size: 70px;'> 太慢! </span>","null","","","","","","","","","","","","","","","","","","","","","","","","","feedback_test","",""
"","","","","","psychophysics","39","386846","0.0-7.0-0.0-0.14","1031","","f","","","","","","","","","","","","","key","f","16.663636363636268","640","356","j","false","../../test_img/22.png","生人","prac_matching_task","生人","[""<img src=\""../../test_img/15.png\"" width=150 style=\""vertical-align:middle\"">---自我"",""<img src=\""../../test_img/26.png\"" width=150 style=\""vertical-align:middle\"">---朋友"",""<img src=\""../../test_img/22.png\"" width=150 style=\""vertical-align:middle\"">---生人""]","","",""
"","","","","","html-keyboard-response","40","387157","0.0-7.0-0.0-1.14","null","<span style='color:red; font-size: 70px;'>错误! </span>","null","","","","","","","","","","","","","","","","","","","","","","","","","feedback_test","",""
"","","","","","psychophysics","41","389413","0.0-7.0-0.0-0.15","1249","","f","","","","","","","","","","","","","key","f","16.664925373134153","640","356","f","true","../../test_img/15.png","生人","prac_matching_task","自我","[""<img src=\""../../test_img/15.png\"" width=150 style=\""vertical-align:middle\"">---自我"",""<img src=\""../../test_img/26.png\"" width=150 style=\""vertical-align:middle\"">---朋友"",""<img src=\""../../test_img/22.png\"" width=150 style=\""vertical-align:middle\"">---生人""]","","",""
"","","","","","html-keyboard-response","42","389722","0.0-7.0-0.0-1.15","null","<span style='color:GreenYellow; font-size: 70px;'>正确! </span>","null","","","","","","","","","","","","","","","","","","","","","","","","","feedback_test","",""
"","","","","","psychophysics","43","392121","0.0-7.0-0.0-0.16","1391","","f","","","","","","","","","","","","","key","f","16.665034965034803","640","356","f","true","../../test_img/22.png","自我","prac_matching_task","生人","[""<img src=\""../../test_img/15.png\"" width=150 style=\""vertical-align:middle\"">---自我"",""<img src=\""../../test_img/26.png\"" width=150 style=\""vertical-align:middle\"">---朋友"",""<img src=\""../../test_img/22.png\"" width=150 style=\""vertical-align:middle\"">---生人""]","","",""
"","","","","","html-keyboard-response","44","392430","0.0-7.0-0.0-1.16","null","<span style='color:GreenYellow; font-size: 70px;'>正确! </span>","null","","","","","","","","","","","","","","","","","","","","","","","","","feedback_test","",""
"","","","","","psychophysics","45","394563","0.0-7.0-0.0-0.17","1124","","f","","","","","","","","","","","","","key","f","16.665079365079272","640","356","f","true","../../test_img/22.png","朋友","prac_matching_task","生人","[""<img src=\""../../test_img/15.png\"" width=150 style=\""vertical-align:middle\"">---自我"",""<img src=\""../../test_img/26.png\"" width=150 style=\""vertical-align:middle\"">---朋友"",""<img src=\""../../test_img/22.png\"" width=150 style=\""vertical-align:middle\"">---生人""]","","",""
"","","","","","html-keyboard-response","46","394865","0.0-7.0-0.0-1.17","null","<span style='color:GreenYellow; font-size: 70px;'>正确! </span>","null","","","","","","","","","","","","","","","","","","","","","","","","","feedback_test","",""
"","","","","","psychophysics","47","397061","0.0-7.0-0.0-0.18","1181","","j","","","","","","","","","","","","","key","j","16.664615384615562","640","356","j","true","../../test_img/26.png","朋友","prac_matching_task","朋友","[""<img src=\""../../test_img/15.png\"" width=150 style=\""vertical-align:middle\"">---自我"",""<img src=\""../../test_img/26.png\"" width=150 style=\""vertical-align:middle\"">---朋友"",""<img src=\""../../test_img/22.png\"" width=150 style=\""vertical-align:middle\"">---生人""]","","",""
"","","","","","html-keyboard-response","48","397370","0.0-7.0-0.0-1.18","null","<span style='color:GreenYellow; font-size: 70px;'>正确! </span>","null","","","","","","","","","","","","","","","","","","","","","","","","","feedback_test","",""
"","","","","","psychophysics","49","399208","0.0-7.0-0.0-0.19","832","","j","","","","","","","","","","","","","key","j","16.664220183486453","640","356","j","true","../../test_img/22.png","生人","prac_matching_task","生人","[""<img src=\""../../test_img/15.png\"" width=150 style=\""vertical-align:middle\"">---自我"",""<img src=\""../../test_img/26.png\"" width=150 style=\""vertical-align:middle\"">---朋友"",""<img src=\""../../test_img/22.png\"" width=150 style=\""vertical-align:middle\"">---生人""]","","",""
"","","","","","html-keyboard-response","50","399515","0.0-7.0-0.0-1.19","null","<span style='color:GreenYellow; font-size: 70px;'>正确! </span>","null","","","","","","","","","","","","","","","","","","","","","","","","","feedback_test","",""
"","","","","","psychophysics","51","401097","0.0-7.0-0.0-0.20","572","","j","","","","","","","","","","","","","key","j","16.66382978723367","640","356","j","true","../../test_img/15.png","自我","prac_matching_task","自我","[""<img src=\""../../test_img/15.png\"" width=150 style=\""vertical-align:middle\"">---自我"",""<img src=\""../../test_img/26.png\"" width=150 style=\""vertical-align:middle\"">---朋友"",""<img src=\""../../test_img/22.png\"" width=150 style=\""vertical-align:middle\"">---生人""]","","",""
"","","","","","html-keyboard-response","52","401398","0.0-7.0-0.0-1.20","null","<span style='color:GreenYellow; font-size: 70px;'>正确! </span>","null","","","","","","","","","","","","","","","","","","","","","","","","","feedback_test","",""
"","","","","","psychophysics","53","403499","0.0-7.0-0.0-0.21","1087","","f","","","","","","","","","","","","","key","f","16.664","640","356","j","false","../../test_img/15.png","自我","prac_matching_task","自我","[""<img src=\""../../test_img/15.png\"" width=150 style=\""vertical-align:middle\"">---自我"",""<img src=\""../../test_img/26.png\"" width=150 style=\""vertical-align:middle\"">---朋友"",""<img src=\""../../test_img/22.png\"" width=150 style=\""vertical-align:middle\"">---生人""]","","",""
"","","","","","html-keyboard-response","54","403801","0.0-7.0-0.0-1.21","null","<span style='color:red; font-size: 70px;'>错误! </span>","null","","","","","","","","","","","","","","","","","","","","","","","","","feedback_test","",""
"","","","","","psychophysics","55","405566","0.0-7.0-0.0-0.22","756","","f","","","","","","","","","","","","","key","f","16.664761904761793","640","356","f","true","../../test_img/15.png","朋友","prac_matching_task","自我","[""<img src=\""../../test_img/15.png\"" width=150 style=\""vertical-align:middle\"">---自我"",""<img src=\""../../test_img/26.png\"" width=150 style=\""vertical-align:middle\"">---朋友"",""<img src=\""../../test_img/22.png\"" width=150 style=\""vertical-align:middle\"">---生人""]","","",""
"","","","","","html-keyboard-response","56","405873","0.0-7.0-0.0-1.22","null","<span style='color:GreenYellow; font-size: 70px;'>正确! </span>","null","","","","","","","","","","","","","","","","","","","","","","","","","feedback_test","",""
"","","","","","psychophysics","57","407950","0.0-7.0-0.0-0.23","1072","","f","","","","","","","","","","","","","key","f","16.66370967741926","640","356","f","true","../../test_img/26.png","生人","prac_matching_task","朋友","[""<img src=\""../../test_img/15.png\"" width=150 style=\""vertical-align:middle\"">---自我"",""<img src=\""../../test_img/26.png\"" width=150 style=\""vertical-align:middle\"">---朋友"",""<img src=\""../../test_img/22.png\"" width=150 style=\""vertical-align:middle\"">---生人""]","","",""
"","","","","","html-keyboard-response","58","408262","0.0-7.0-0.0-1.23","null","<span style='color:GreenYellow; font-size: 70px;'>正确! </span>","null","","","","","","","","","","","","","","","","","","","","","","","","","feedback_test","",""
"","","","","","html-keyboard-response","59","420311","0.0-7.0-1.0-0.0","12046","<style>.context{color:white; font-size: 35px; line-height:40px}</style>                          <div><p class='context'>您正确回答了50% 的试次。</p ><p class='context'>您的平均反应时为1069毫秒。</p >"," ","","","","","","","","","","","","","","","","","","","","","","","","","","",""
"","","","","","instructions","60","431533","0.0-7.0-1.0-1.0","11218","","","","","","","","","","","","","","[{""page_index"":0,""viewing_time"":2497},{""page_index"":1,""viewing_time"":6008},{""page_index"":2,""viewing_time"":920},{""page_index"":3,""viewing_time"":1792}]","","","","","","","","","","","","","","",""
"","","","","","psychophysics","61","433480","0.0-7.1-0.1-0.24","939","","f","","","","","","","","","","","","","key","f","16.664655172413593","640","356","j","false","../../test_img/26.png","朋友","prac_matching_task","朋友","[""<img src=\""../../test_img/15.png\"" width=150 style=\""vertical-align:middle\"">---自我"",""<img src=\""../../test_img/26.png\"" width=150 style=\""vertical-align:middle\"">---朋友"",""<img src=\""../../test_img/22.png\"" width=150 style=\""vertical-align:middle\"">---生人""]","","",""
"","","","","","html-keyboard-response","62","433794","0.0-7.1-0.1-1.24","null","<span style='color:red; font-size: 70px;'>错误! </span>","null","","","","","","","","","","","","","","","","","","","","","","","","","feedback_test","",""
"","","","","","psychophysics","63","436133","0.0-7.1-0.1-0.25","1336","","j","","","","","","","","","","","","","key","j","16.664028776978334","640","356","f","false","../../test_img/26.png","自我","prac_matching_task","朋友","[""<img src=\""../../test_img/15.png\"" width=150 style=\""vertical-align:middle\"">---自我"",""<img src=\""../../test_img/26.png\"" width=150 style=\""vertical-align:middle\"">---朋友"",""<img src=\""../../test_img/22.png\"" width=150 style=\""vertical-align:middle\"">---生人""]","","",""
"","","","","","html-keyboard-response","64","436441","0.0-7.1-0.1-1.25","null","<span style='color:red; font-size: 70px;'>错误! </span>","null","","","","","","","","","","","","","","","","","","","","","","","","","feedback_test","",""
"","","","","","psychophysics","65","438769","0.0-7.1-0.1-0.26","1323","","f","","","","","","","","","","","","","key","f","16.66376811594186","640","356","f","true","../../test_img/22.png","自我","prac_matching_task","生人","[""<img src=\""../../test_img/15.png\"" width=150 style=\""vertical-align:middle\"">---自我"",""<img src=\""../../test_img/26.png\"" width=150 style=\""vertical-align:middle\"">---朋友"",""<img src=\""../../test_img/22.png\"" width=150 style=\""vertical-align:middle\"">---生人""]","","",""
"","","","","","html-keyboard-response","66","439078","0.0-7.1-0.1-1.26","null","<span style='color:GreenYellow; font-size: 70px;'>正确! </span>","null","","","","","","","","","","","","","","","","","","","","","","","","","feedback_test","",""
"","","","","","psychophysics","67","441112","0.0-7.1-0.1-0.27","1022","","j","","","","","","","","","","","","","key","j","16.66446280991755","640","356","j","true","../../test_img/15.png","自我","prac_matching_task","自我","[""<img src=\""../../test_img/15.png\"" width=150 style=\""vertical-align:middle\"">---自我"",""<img src=\""../../test_img/26.png\"" width=150 style=\""vertical-align:middle\"">---朋友"",""<img src=\""../../test_img/22.png\"" width=150 style=\""vertical-align:middle\"">---生人""]","","",""
"","","","","","html-keyboard-response","68","441428","0.0-7.1-0.1-1.27","null","<span style='color:GreenYellow; font-size: 70px;'>正确! </span>","null","","","","","","","","","","","","","","","","","","","","","","","","","feedback_test","",""
"","","","","","psychophysics","69","443226","0.0-7.1-0.1-0.28","794","","f","","","","","","","","","","","","","key","f","16.664485981308736","640","356","f","true","../../test_img/15.png","朋友","prac_matching_task","自我","[""<img src=\""../../test_img/15.png\"" width=150 style=\""vertical-align:middle\"">---自我"",""<img src=\""../../test_img/26.png\"" width=150 style=\""vertical-align:middle\"">---朋友"",""<img src=\""../../test_img/22.png\"" width=150 style=\""vertical-align:middle\"">---生人""]","","",""
"","","","","","html-keyboard-response","70","443539","0.0-7.1-0.1-1.28","null","<span style='color:GreenYellow; font-size: 70px;'>正确! </span>","null","","","","","","","","","","","","","","","","","","","","","","","","","feedback_test","",""
"","","","","","psychophysics","71","445388","0.0-7.1-0.1-0.29","847","","f","","","","","","","","","","","","","key","f","16.664220183486453","640","356","f","true","../../test_img/22.png","朋友","prac_matching_task","生人","[""<img src=\""../../test_img/15.png\"" width=150 style=\""vertical-align:middle\"">---自我"",""<img src=\""../../test_img/26.png\"" width=150 style=\""vertical-align:middle\"">---朋友"",""<img src=\""../../test_img/22.png\"" width=150 style=\""vertical-align:middle\"">---生人""]","","",""
"","","","","","html-keyboard-response","72","445698","0.0-7.1-0.1-1.29","null","<span style='color:GreenYellow; font-size: 70px;'>正确! </span>","null","","","","","","","","","","","","","","","","","","","","","","","","","feedback_test","",""
"","","","","","psychophysics","73","447880","0.0-7.1-0.1-0.30","1174","","j","","","","","","","","","","","","","key","j","16.664615384615114","640","356","j","true","../../test_img/22.png","生人","prac_matching_task","生人","[""<img src=\""../../test_img/15.png\"" width=150 style=\""vertical-align:middle\"">---自我"",""<img src=\""../../test_img/26.png\"" width=150 style=\""vertical-align:middle\"">---朋友"",""<img src=\""../../test_img/22.png\"" width=150 style=\""vertical-align:middle\"">---生人""]","","",""
"","","","","","html-keyboard-response","74","448188","0.0-7.1-0.1-1.30","null","<span style='color:GreenYellow; font-size: 70px;'>正确! </span>","null","","","","","","","","","","","","","","","","","","","","","","","","","feedback_test","",""
"","","","","","psychophysics","75","450362","0.0-7.1-0.1-0.31","1173","","f","","","","","","","","","","","","","key","f","16.656589147286912","640","356","f","true","../../test_img/26.png","生人","prac_matching_task","朋友","[""<img src=\""../../test_img/15.png\"" width=150 style=\""vertical-align:middle\"">---自我"",""<img src=\""../../test_img/26.png\"" width=150 style=\""vertical-align:middle\"">---朋友"",""<img src=\""../../test_img/22.png\"" width=150 style=\""vertical-align:middle\"">---生人""]","","",""
"","","","","","html-keyboard-response","76","450676","0.0-7.1-0.1-1.31","null","<span style='color:GreenYellow; font-size: 70px;'>正确! </span>","null","","","","","","","","","","","","","","","","","","","","","","","","","feedback_test","",""
"","","","","","psychophysics","77","452610","0.0-7.1-0.1-0.32","922","","j","","","","","","","","","","","","","key","j","16.663478260869464","640","356","j","true","../../test_img/22.png","生人","prac_matching_task","生人","[""<img src=\""../../test_img/15.png\"" width=150 style=\""vertical-align:middle\"">---自我"",""<img src=\""../../test_img/26.png\"" width=150 style=\""vertical-align:middle\"">---朋友"",""<img src=\""../../test_img/22.png\"" width=150 style=\""vertical-align:middle\"">---生人""]","","",""
"","","","","","html-keyboard-response","78","452918","0.0-7.1-0.1-1.32","null","<span style='color:GreenYellow; font-size: 70px;'>正确! </span>","null","","","","","","","","","","","","","","","","","","","","","","","","","feedback_test","",""
"","","","","","psychophysics","79","454649","0.0-7.1-0.1-0.33","727","","j","","","","","","","","","","","","","key","j","16.66504854368932","640","356","j","true","../../test_img/15.png","自我","prac_matching_task","自我","[""<img src=\""../../test_img/15.png\"" width=150 style=\""vertical-align:middle\"">---自我"",""<img src=\""../../test_img/26.png\"" width=150 style=\""vertical-align:middle\"">---朋友"",""<img src=\""../../test_img/22.png\"" width=150 style=\""vertical-align:middle\"">---生人""]","","",""
"","","","","","html-keyboard-response","80","454950","0.0-7.1-0.1-1.33","null","<span style='color:GreenYellow; font-size: 70px;'>正确! </span>","null","","","","","","","","","","","","","","","","","","","","","","","","","feedback_test","",""
"","","","","","psychophysics","81","456942","0.0-7.1-0.1-0.34","987","","f","","","","","","","","","","","","","key","f","16.664705882352745","640","356","f","true","../../test_img/15.png","生人","prac_matching_task","自我","[""<img src=\""../../test_img/15.png\"" width=150 style=\""vertical-align:middle\"">---自我"",""<img src=\""../../test_img/26.png\"" width=150 style=\""vertical-align:middle\"">---朋友"",""<img src=\""../../test_img/22.png\"" width=150 style=\""vertical-align:middle\"">---生人""]","","",""
"","","","","","html-keyboard-response","82","457255","0.0-7.1-0.1-1.34","null","<span style='color:GreenYellow; font-size: 70px;'>正确! </span>","null","","","","","","","","","","","","","","","","","","","","","","","","","feedback_test","",""
"","","","","","psychophysics","83","459529","0.0-7.1-0.1-0.35","1271","","j","","","","","","","","","","","","","key","j","16.66444444444453","640","356","j","true","../../test_img/26.png","朋友","prac_matching_task","朋友","[""<img src=\""../../test_img/15.png\"" width=150 style=\""vertical-align:middle\"">---自我"",""<img src=\""../../test_img/26.png\"" width=150 style=\""vertical-align:middle\"">---朋友"",""<img src=\""../../test_img/22.png\"" width=150 style=\""vertical-align:middle\"">---生人""]","","",""
"","","","","","html-keyboard-response","84","459833","0.0-7.1-0.1-1.35","null","<span style='color:GreenYellow; font-size: 70px;'>正确! </span>","null","","","","","","","","","","","","","","","","","","","","","","","","","feedback_test","",""
"","","","","","psychophysics","85","461806","0.0-7.1-0.1-0.36","969","","f","","","","","","","","","","","","","key","f","16.663559322034292","640","356","f","true","../../test_img/26.png","生人","prac_matching_task","朋友","[""<img src=\""../../test_img/15.png\"" width=150 style=\""vertical-align:middle\"">---自我"",""<img src=\""../../test_img/26.png\"" width=150 style=\""vertical-align:middle\"">---朋友"",""<img src=\""../../test_img/22.png\"" width=150 style=\""vertical-align:middle\"">---生人""]","","",""
"","","","","","html-keyboard-response","86","462108","0.0-7.1-0.1-1.36","null","<span style='color:GreenYellow; font-size: 70px;'>正确! </span>","null","","","","","","","","","","","","","","","","","","","","","","","","","feedback_test","",""
"","","","","","psychophysics","87","464015","0.0-7.1-0.1-0.37","902","","j","","","","","","","","","","","","","key","j","16.663716814159294","640","356","j","true","../../test_img/22.png","生人","prac_matching_task","生人","[""<img src=\""../../test_img/15.png\"" width=150 style=\""vertical-align:middle\"">---自我"",""<img src=\""../../test_img/26.png\"" width=150 style=\""vertical-align:middle\"">---朋友"",""<img src=\""../../test_img/22.png\"" width=150 style=\""vertical-align:middle\"">---生人""]","","",""
"","","","","","html-keyboard-response","88","464321","0.0-7.1-0.1-1.37","null","<span style='color:GreenYellow; font-size: 70px;'>正确! </span>","null","","","","","","","","","","","","","","","","","","","","","","","","","feedback_test","",""
"","","","","","psychophysics","89","466238","0.0-7.1-0.1-0.38","908","","j","","","","","","","","","","","","","key","j","16.66315789473664","640","356","f","false","../../test_img/22.png","朋友","prac_matching_task","生人","[""<img src=\""../../test_img/15.png\"" width=150 style=\""vertical-align:middle\"">---自我"",""<img src=\""../../test_img/26.png\"" width=150 style=\""vertical-align:middle\"">---朋友"",""<img src=\""../../test_img/22.png\"" width=150 style=\""vertical-align:middle\"">---生人""]","","",""
"","","","","","html-keyboard-response","90","466546","0.0-7.1-0.1-1.38","null","<span style='color:red; font-size: 70px;'>错误! </span>","null","","","","","","","","","","","","","","","","","","","","","","","","","feedback_test","",""
"","","","","","psychophysics","91","468429","0.0-7.1-0.1-0.39","876","","f","","","","","","","","","","","","","key","f","16.665178571428573","640","356","f","true","../../test_img/15.png","生人","prac_matching_task","自我","[""<img src=\""../../test_img/15.png\"" width=150 style=\""vertical-align:middle\"">---自我"",""<img src=\""../../test_img/26.png\"" width=150 style=\""vertical-align:middle\"">---朋友"",""<img src=\""../../test_img/22.png\"" width=150 style=\""vertical-align:middle\"">---生人""]","","",""
"","","","","","html-keyboard-response","92","468743","0.0-7.1-0.1-1.39","null","<span style='color:GreenYellow; font-size: 70px;'>正确! </span>","null","","","","","","","","","","","","","","","","","","","","","","","","","feedback_test","",""
"","","","","","psychophysics","93","470783","0.0-7.1-0.1-0.40","1030","","j","","","","","","","","","","","","","key","j","16.665289256198346","640","356","j","true","../../test_img/26.png","朋友","prac_matching_task","朋友","[""<img src=\""../../test_img/15.png\"" width=150 style=\""vertical-align:middle\"">---自我"",""<img src=\""../../test_img/26.png\"" width=150 style=\""vertical-align:middle\"">---朋友"",""<img src=\""../../test_img/22.png\"" width=150 style=\""vertical-align:middle\"">---生人""]","","",""
"","","","","","html-keyboard-response","94","471094","0.0-7.1-0.1-1.40","null","<span style='color:GreenYellow; font-size: 70px;'>正确! </span>","null","","","","","","","","","","","","","","","","","","","","","","","","","feedback_test","",""
"","","","","","psychophysics","95","473005","0.0-7.1-0.1-0.41","905","","j","","","","","","","","","","","","","key","j","16.6640350877194","640","356","j","true","../../test_img/22.png","生人","prac_matching_task","生人","[""<img src=\""../../test_img/15.png\"" width=150 style=\""vertical-align:middle\"">---自我"",""<img src=\""../../test_img/26.png\"" width=150 style=\""vertical-align:middle\"">---朋友"",""<img src=\""../../test_img/22.png\"" width=150 style=\""vertical-align:middle\"">---生人""]","","",""
"","","","","","html-keyboard-response","96","473316","0.0-7.1-0.1-1.41","null","<span style='color:GreenYellow; font-size: 70px;'>正确! </span>","null","","","","","","","","","","","","","","","","","","","","","","","","","feedback_test","",""
"","","","","","psychophysics","97","475182","0.0-7.1-0.1-0.42","864","","f","","","","","","","","","","","","","key","f","16.66486486486476","640","356","f","true","../../test_img/26.png","自我","prac_matching_task","朋友","[""<img src=\""../../test_img/15.png\"" width=150 style=\""vertical-align:middle\"">---自我"",""<img src=\""../../test_img/26.png\"" width=150 style=\""vertical-align:middle\"">---朋友"",""<img src=\""../../test_img/22.png\"" width=150 style=\""vertical-align:middle\"">---生人""]","","",""
"","","","","","html-keyboard-response","98","475489","0.0-7.1-0.1-1.42","null","<span style='color:GreenYellow; font-size: 70px;'>正确! </span>","null","","","","","","","","","","","","","","","","","","","","","","","","","feedback_test","",""
"","","","","","psychophysics","99","477316","0.0-7.1-0.1-0.43","818","","j","","","","","","","","","","","","","key","j","16.666666666666668","640","356","j","true","../../test_img/15.png","自我","prac_matching_task","自我","[""<img src=\""../../test_img/15.png\"" width=150 style=\""vertical-align:middle\"">---自我"",""<img src=\""../../test_img/26.png\"" width=150 style=\""vertical-align:middle\"">---朋友"",""<img src=\""../../test_img/22.png\"" width=150 style=\""vertical-align:middle\"">---生人""]","","",""
"","","","","","html-keyboard-response","100","477630","0.0-7.1-0.1-1.43","null","<span style='color:GreenYellow; font-size: 70px;'>正确! </span>","null","","","","","","","","","","","","","","","","","","","","","","","","","feedback_test","",""
"","","","","","psychophysics","101","479569","0.0-7.1-0.1-0.44","934","","j","","","","","","","","","","","","","key","j","16.664655172414093","640","356","j","true","../../test_img/26.png","朋友","prac_matching_task","朋友","[""<img src=\""../../test_img/15.png\"" width=150 style=\""vertical-align:middle\"">---自我"",""<img src=\""../../test_img/26.png\"" width=150 style=\""vertical-align:middle\"">---朋友"",""<img src=\""../../test_img/22.png\"" width=150 style=\""vertical-align:middle\"">---生人""]","","",""
"","","","","","html-keyboard-response","102","479877","0.0-7.1-0.1-1.44","null","<span style='color:GreenYellow; font-size: 70px;'>正确! </span>","null","","","","","","","","","","","","","","","","","","","","","","","","","feedback_test","",""
"","","","","","psychophysics","103","481606","0.0-7.1-0.1-0.45","721","","j","","","","","","","","","","","","","key","j","16.66504854368932","640","356","j","true","../../test_img/15.png","自我","prac_matching_task","自我","[""<img src=\""../../test_img/15.png\"" width=150 style=\""vertical-align:middle\"">---自我"",""<img src=\""../../test_img/26.png\"" width=150 style=\""vertical-align:middle\"">---朋友"",""<img src=\""../../test_img/22.png\"" width=150 style=\""vertical-align:middle\"">---生人""]","","",""
"","","","","","html-keyboard-response","104","481915","0.0-7.1-0.1-1.45","null","<span style='color:GreenYellow; font-size: 70px;'>正确! </span>","null","","","","","","","","","","","","","","","","","","","","","","","","","feedback_test","",""
"","","","","","psychophysics","105","483639","0.0-7.1-0.1-0.46","722","","f","","","","","","","","","","","","","key","f","16.66504854368932","640","356","f","true","../../test_img/22.png","自我","prac_matching_task","生人","[""<img src=\""../../test_img/15.png\"" width=150 style=\""vertical-align:middle\"">---自我"",""<img src=\""../../test_img/26.png\"" width=150 style=\""vertical-align:middle\"">---朋友"",""<img src=\""../../test_img/22.png\"" width=150 style=\""vertical-align:middle\"">---生人""]","","",""
"","","","","","html-keyboard-response","106","483944","0.0-7.1-0.1-1.46","null","<span style='color:GreenYellow; font-size: 70px;'>正确! </span>","null","","","","","","","","","","","","","","","","","","","","","","","","","feedback_test","",""
"","","","","","psychophysics","107","485852","0.0-7.1-0.1-0.47","901","","f","","","","","","","","","","","","","key","f","16.66315789473664","640","356","f","true","../../test_img/15.png","朋友","prac_matching_task","自我","[""<img src=\""../../test_img/15.png\"" width=150 style=\""vertical-align:middle\"">---自我"",""<img src=\""../../test_img/26.png\"" width=150 style=\""vertical-align:middle\"">---朋友"",""<img src=\""../../test_img/22.png\"" width=150 style=\""vertical-align:middle\"">---生人""]","","",""
"","","","","","html-keyboard-response","108","486154","0.0-7.1-0.1-1.47","null","<span style='color:GreenYellow; font-size: 70px;'>正确! </span>","null","","","","","","","","","","","","","","","","","","","","","","","","","feedback_test","",""
"","","","","","html-keyboard-response","109","490118","0.0-8.0","3962","<style>.context{color:white; font-size: 35px; line-height:40px}</style>                          <div><p class='context'>您正确回答了88% 的试次。</p ><p class='context'>您的平均反应时为947毫秒。</p ><p class='context'>恭喜您完成练习。按任意键进入知觉匹配任务正式实验。</p ><p style = 'color:lightgreen; font-size: 35px;' >正式实验与练习要求相同，请您尽可能又快又准地进行按键反应</p><p class='footer' style='font-size: 22px; line-height:40px;'>在实验过程中请将您分别将<span style='color: lightgreen;'>左手和右手的食指</span>放在电脑键盘的相应键位上进行按键。</p >"," ","","","","","","","","","","","","","","","","","","","","","","","","","","",""
"","","","","","psychophysics","110","492182","0.0-9.0-0.0-0.0-0.0-0.0","1055","","j","","","","","","","","","","","","","key","j","16.66393442622951","640","356","f","false","../../test_img/22.png","朋友","matching_task","生人","[""<img src=\""../../test_img/15.png\"" width=150 style=\""vertical-align:middle\"">---自我"",""<img src=\""../../test_img/26.png\"" width=150 style=\""vertical-align:middle\"">---朋友"",""<img src=\""../../test_img/22.png\"" width=150 style=\""vertical-align:middle\"">---生人""]","","",""
"","","","","","html-keyboard-response","111","492696","0.0-9.0-0.0-0.0-0.0-1.0","null","<span style='color:red; font-size: 70px;'>错误! </span>","null","","","","","","","","","","","","","","","","","","","","","","","","","feedback_test","",""
"","","","","","psychophysics","112","494948","0.0-9.0-0.0-0.0-0.0-0.1","1249","","f","","","","","","","","","","","","","key","f","16.66417910447761","640","356","f","true","../../test_img/22.png","自我","matching_task","生人","[""<img src=\""../../test_img/15.png\"" width=150 style=\""vertical-align:middle\"">---自我"",""<img src=\""../../test_img/26.png\"" width=150 style=\""vertical-align:middle\"">---朋友"",""<img src=\""../../test_img/22.png\"" width=150 style=\""vertical-align:middle\"">---生人""]","","",""
"","","","","","html-keyboard-response","113","495454","0.0-9.0-0.0-0.0-0.0-1.1","null","<span style='color:GreenYellow; font-size: 70px;'>正确! </span>","null","","","","","","","","","","","","","","","","","","","","","","","","","feedback_test","",""
"","","","","","psychophysics","114","497366","0.0-9.0-0.0-0.0-0.0-0.2","901","","f","","","","","","","","","","","","","key","f","16.665789473684416","640","356","f","true","../../test_img/15.png","生人","matching_task","自我","[""<img src=\""../../test_img/15.png\"" width=150 style=\""vertical-align:middle\"">---自我"",""<img src=\""../../test_img/26.png\"" width=150 style=\""vertical-align:middle\"">---朋友"",""<img src=\""../../test_img/22.png\"" width=150 style=\""vertical-align:middle\"">---生人""]","","",""
"","","","","","html-keyboard-response","115","497870","0.0-9.0-0.0-0.0-0.0-1.2","null","<span style='color:GreenYellow; font-size: 70px;'>正确! </span>","null","","","","","","","","","","","","","","","","","","","","","","","","","feedback_test","",""
"","","","","","psychophysics","116","499884","0.0-9.0-0.0-0.0-0.0-0.3","1005","","j","","","","","","","","","","","","","key","j","16.664999999999903","640","356","j","true","../../test_img/26.png","朋友","matching_task","朋友","[""<img src=\""../../test_img/15.png\"" width=150 style=\""vertical-align:middle\"">---自我"",""<img src=\""../../test_img/26.png\"" width=150 style=\""vertical-align:middle\"">---朋友"",""<img src=\""../../test_img/22.png\"" width=150 style=\""vertical-align:middle\"">---生人""]","","",""
"","","","","","html-keyboard-response","117","500392","0.0-9.0-0.0-0.0-0.0-1.3","null","<span style='color:GreenYellow; font-size: 70px;'>正确! </span>","null","","","","","","","","","","","","","","","","","","","","","","","","","feedback_test","",""
"","","","","","psychophysics","118","502271","0.0-9.0-0.0-0.0-0.0-0.4","877","","j","","","","","","","","","","","","","key","j","16.66428571428592","640","356","j","true","../../test_img/15.png","自我","matching_task","自我","[""<img src=\""../../test_img/15.png\"" width=150 style=\""vertical-align:middle\"">---自我"",""<img src=\""../../test_img/26.png\"" width=150 style=\""vertical-align:middle\"">---朋友"",""<img src=\""../../test_img/22.png\"" width=150 style=\""vertical-align:middle\"">---生人""]","","",""
"","","","","","html-keyboard-response","119","502773","0.0-9.0-0.0-0.0-0.0-1.4","null","<span style='color:GreenYellow; font-size: 70px;'>正确! </span>","null","","","","","","","","","","","","","","","","","","","","","","","","","feedback_test","",""
"","","","","","psychophysics","120","504693","0.0-9.0-0.0-0.0-0.0-0.5","911","","f","","","","","","","","","","","","","key","f","16.664912280701653","640","356","f","true","../../test_img/15.png","朋友","matching_task","自我","[""<img src=\""../../test_img/15.png\"" width=150 style=\""vertical-align:middle\"">---自我"",""<img src=\""../../test_img/26.png\"" width=150 style=\""vertical-align:middle\"">---朋友"",""<img src=\""../../test_img/22.png\"" width=150 style=\""vertical-align:middle\"">---生人""]","","",""
"","","","","","html-keyboard-response","121","505207","0.0-9.0-0.0-0.0-0.0-1.5","null","<span style='color:GreenYellow; font-size: 70px;'>正确! </span>","null","","","","","","","","","","","","","","","","","","","","","","","","","feedback_test","",""
"","","","","","psychophysics","122","507305","0.0-9.0-0.0-0.0-0.0-0.6","1091","","f","","","","","","","","","","","","","key","f","16.664799999999815","640","356","f","true","../../test_img/26.png","生人","matching_task","朋友","[""<img src=\""../../test_img/15.png\"" width=150 style=\""vertical-align:middle\"">---自我"",""<img src=\""../../test_img/26.png\"" width=150 style=\""vertical-align:middle\"">---朋友"",""<img src=\""../../test_img/22.png\"" width=150 style=\""vertical-align:middle\"">---生人""]","","",""
"","","","","","html-keyboard-response","123","507806","0.0-9.0-0.0-0.0-0.0-1.6","null","<span style='color:GreenYellow; font-size: 70px;'>正确! </span>","null","","","","","","","","","","","","","","","","","","","","","","","","","feedback_test","",""
"","","","","","psychophysics","124","509669","0.0-9.0-0.0-0.0-0.0-0.7","855","","j","","","","","","","","","","","","","key","j","16.66396396396407","640","356","j","true","../../test_img/22.png","生人","matching_task","生人","[""<img src=\""../../test_img/15.png\"" width=150 style=\""vertical-align:middle\"">---自我"",""<img src=\""../../test_img/26.png\"" width=150 style=\""vertical-align:middle\"">---朋友"",""<img src=\""../../test_img/22.png\"" width=150 style=\""vertical-align:middle\"">---生人""]","","",""
"","","","","","html-keyboard-response","125","510174","0.0-9.0-0.0-0.0-0.0-1.7","null","<span style='color:GreenYellow; font-size: 70px;'>正确! </span>","null","","","","","","","","","","","","","","","","","","","","","","","","","feedback_test","",""
"","","","","","psychophysics","126","511956","0.0-9.0-0.0-0.0-0.0-0.8","777","","j","","","","","","","","","","","","","key","j","16.663207547170252","640","356","j","true","../../test_img/26.png","朋友","matching_task","朋友","[""<img src=\""../../test_img/15.png\"" width=150 style=\""vertical-align:middle\"">---自我"",""<img src=\""../../test_img/26.png\"" width=150 style=\""vertical-align:middle\"">---朋友"",""<img src=\""../../test_img/22.png\"" width=150 style=\""vertical-align:middle\"">---生人""]","","",""
"","","","","","html-keyboard-response","127","512459","0.0-9.0-0.0-0.0-0.0-1.8","null","<span style='color:GreenYellow; font-size: 70px;'>正确! </span>","null","","","","","","","","","","","","","","","","","","","","","","","","","feedback_test","",""
"","","","","","psychophysics","128","514570","0.0-9.0-0.0-0.0-0.0-0.9","1107","","f","","","","","","","","","","","","","key","f","16.664285714285807","640","356","f","true","../../test_img/26.png","自我","matching_task","朋友","[""<img src=\""../../test_img/15.png\"" width=150 style=\""vertical-align:middle\"">---自我"",""<img src=\""../../test_img/26.png\"" width=150 style=\""vertical-align:middle\"">---朋友"",""<img src=\""../../test_img/22.png\"" width=150 style=\""vertical-align:middle\"">---生人""]","","",""
"","","","","","html-keyboard-response","129","515082","0.0-9.0-0.0-0.0-0.0-1.9","null","<span style='color:GreenYellow; font-size: 70px;'>正确! </span>","null","","","","","","","","","","","","","","","","","","","","","","","","","feedback_test","",""
"","","","","","psychophysics","130","516786","0.0-9.0-0.0-0.0-0.0-0.10","697","","j","","","","","","","","","","","","","key","j","16.664356435643334","640","356","j","true","../../test_img/22.png","生人","matching_task","生人","[""<img src=\""../../test_img/15.png\"" width=150 style=\""vertical-align:middle\"">---自我"",""<img src=\""../../test_img/26.png\"" width=150 style=\""vertical-align:middle\"">---朋友"",""<img src=\""../../test_img/22.png\"" width=150 style=\""vertical-align:middle\"">---生人""]","","",""
"","","","","","html-keyboard-response","131","517290","0.0-9.0-0.0-0.0-0.0-1.10","null","<span style='color:GreenYellow; font-size: 70px;'>正确! </span>","null","","","","","","","","","","","","","","","","","","","","","","","","","feedback_test","",""
"","","","","","psychophysics","132","518984","0.0-9.0-0.0-0.0-0.0-0.11","688","","j","","","","","","","","","","","","","key","j","16.663366336633665","640","356","j","true","../../test_img/15.png","自我","matching_task","自我","[""<img src=\""../../test_img/15.png\"" width=150 style=\""vertical-align:middle\"">---自我"",""<img src=\""../../test_img/26.png\"" width=150 style=\""vertical-align:middle\"">---朋友"",""<img src=\""../../test_img/22.png\"" width=150 style=\""vertical-align:middle\"">---生人""]","","",""
"","","","","","html-keyboard-response","133","519488","0.0-9.0-0.0-0.0-0.0-1.11","null","<span style='color:GreenYellow; font-size: 70px;'>正确! </span>","null","","","","","","","","","","","","","","","","","","","","","","","","","feedback_test","",""
"","","","","","psychophysics","134","521303","0.0-9.0-0.0-0.0-0.0-0.12","813","","f","","","","","","","","","","","","","key","f","16.664814814814708","640","356","f","true","../../test_img/15.png","生人","matching_task","自我","[""<img src=\""../../test_img/15.png\"" width=150 style=\""vertical-align:middle\"">---自我"",""<img src=\""../../test_img/26.png\"" width=150 style=\""vertical-align:middle\"">---朋友"",""<img src=\""../../test_img/22.png\"" width=150 style=\""vertical-align:middle\"">---生人""]","","",""
"","","","","","html-keyboard-response","135","521804","0.0-9.0-0.0-0.0-0.0-1.12","null","<span style='color:GreenYellow; font-size: 70px;'>正确! </span>","null","","","","","","","","","","","","","","","","","","","","","","","","","feedback_test","",""
"","","","","","psychophysics","136","523859","0.0-9.0-0.0-0.0-0.0-0.13","1047","","j","","","","","","","","","","","","","key","j","16.66475409836094","640","356","j","true","../../test_img/26.png","朋友","matching_task","朋友","[""<img src=\""../../test_img/15.png\"" width=150 style=\""vertical-align:middle\"">---自我"",""<img src=\""../../test_img/26.png\"" width=150 style=\""vertical-align:middle\"">---朋友"",""<img src=\""../../test_img/22.png\"" width=150 style=\""vertical-align:middle\"">---生人""]","","",""
"","","","","","html-keyboard-response","137","524361","0.0-9.0-0.0-0.0-0.0-1.13","null","<span style='color:GreenYellow; font-size: 70px;'>正确! </span>","null","","","","","","","","","","","","","","","","","","","","","","","","","feedback_test","",""
"","","","","","psychophysics","138","525988","0.0-9.0-0.0-0.0-0.0-0.14","626","","j","","","","","","","","","","","","","key","j","16.66458333333382","640","356","j","true","../../test_img/15.png","自我","matching_task","自我","[""<img src=\""../../test_img/15.png\"" width=150 style=\""vertical-align:middle\"">---自我"",""<img src=\""../../test_img/26.png\"" width=150 style=\""vertical-align:middle\"">---朋友"",""<img src=\""../../test_img/22.png\"" width=150 style=\""vertical-align:middle\"">---生人""]","","",""
"","","","","","html-keyboard-response","139","526494","0.0-9.0-0.0-0.0-0.0-1.14","null","<span style='color:GreenYellow; font-size: 70px;'>正确! </span>","null","","","","","","","","","","","","","","","","","","","","","","","","","feedback_test","",""
"","","","","","psychophysics","140","528160","0.0-9.0-0.0-0.0-0.0-0.15","665","","j","","","","","","","","","","","","","key","j","16.658163265306122","640","356","j","true","../../test_img/22.png","生人","matching_task","生人","[""<img src=\""../../test_img/15.png\"" width=150 style=\""vertical-align:middle\"">---自我"",""<img src=\""../../test_img/26.png\"" width=150 style=\""vertical-align:middle\"">---朋友"",""<img src=\""../../test_img/22.png\"" width=150 style=\""vertical-align:middle\"">---生人""]","","",""
"","","","","","html-keyboard-response","141","528666","0.0-9.0-0.0-0.0-0.0-1.15","null","<span style='color:GreenYellow; font-size: 70px;'>正确! </span>","null","","","","","","","","","","","","","","","","","","","","","","","","","feedback_test","",""
"","","","","","psychophysics","142","530379","0.0-9.0-0.0-0.0-0.0-0.16","706","","j","","","","","","","","","","","","","key","j","16.664705882352255","640","356","j","true","../../test_img/26.png","朋友","matching_task","朋友","[""<img src=\""../../test_img/15.png\"" width=150 style=\""vertical-align:middle\"">---自我"",""<img src=\""../../test_img/26.png\"" width=150 style=\""vertical-align:middle\"">---朋友"",""<img src=\""../../test_img/22.png\"" width=150 style=\""vertical-align:middle\"">---生人""]","","",""
"","","","","","html-keyboard-response","143","530892","0.0-9.0-0.0-0.0-0.0-1.16","null","<span style='color:GreenYellow; font-size: 70px;'>正确! </span>","null","","","","","","","","","","","","","","","","","","","","","","","","","feedback_test","",""
"","","","","","psychophysics","144","532905","0.0-9.0-0.0-0.0-0.0-0.17","1012","","f","","","","","","","","","","","","","key","f","16.66349999999996","640","356","f","true","../../test_img/26.png","生人","matching_task","朋友","[""<img src=\""../../test_img/15.png\"" width=150 style=\""vertical-align:middle\"">---自我"",""<img src=\""../../test_img/26.png\"" width=150 style=\""vertical-align:middle\"">---朋友"",""<img src=\""../../test_img/22.png\"" width=150 style=\""vertical-align:middle\"">---生人""]","","",""
"","","","","","html-keyboard-response","145","533410","0.0-9.0-0.0-0.0-0.0-1.17","null","<span style='color:GreenYellow; font-size: 70px;'>正确! </span>","null","","","","","","","","","","","","","","","","","","","","","","","","","feedback_test","",""
"","","","","","psychophysics","146","535308","0.0-9.0-0.0-0.0-0.0-0.18","897","","f","","","","","","","","","","","","","key","f","16.664285714284883","640","356","f","true","../../test_img/22.png","朋友","matching_task","生人","[""<img src=\""../../test_img/15.png\"" width=150 style=\""vertical-align:middle\"">---自我"",""<img src=\""../../test_img/26.png\"" width=150 style=\""vertical-align:middle\"">---朋友"",""<img src=\""../../test_img/22.png\"" width=150 style=\""vertical-align:middle\"">---生人""]","","",""
"","","","","","html-keyboard-response","147","535817","0.0-9.0-0.0-0.0-0.0-1.18","null","<span style='color:GreenYellow; font-size: 70px;'>正确! </span>","null","","","","","","","","","","","","","","","","","","","","","","","","","feedback_test","",""
"","","","","","psychophysics","148","537678","0.0-9.0-0.0-0.0-0.0-0.19","852","","f","","","","","","","","","","","","","key","f","16.665765765765975","640","356","f","true","../../test_img/22.png","自我","matching_task","生人","[""<img src=\""../../test_img/15.png\"" width=150 style=\""vertical-align:middle\"">---自我"",""<img src=\""../../test_img/26.png\"" width=150 style=\""vertical-align:middle\"">---朋友"",""<img src=\""../../test_img/22.png\"" width=150 style=\""vertical-align:middle\"">---生人""]","","",""
"","","","","","html-keyboard-response","149","538184","0.0-9.0-0.0-0.0-0.0-1.19","null","<span style='color:GreenYellow; font-size: 70px;'>正确! </span>","null","","","","","","","","","","","","","","","","","","","","","","","","","feedback_test","",""
"","","","","","psychophysics","150","540011","0.0-9.0-0.0-0.0-0.0-0.20","818","","f","","","","","","","","","","","","","key","f","16.665137614678898","640","356","f","true","../../test_img/26.png","自我","matching_task","朋友","[""<img src=\""../../test_img/15.png\"" width=150 style=\""vertical-align:middle\"">---自我"",""<img src=\""../../test_img/26.png\"" width=150 style=\""vertical-align:middle\"">---朋友"",""<img src=\""../../test_img/22.png\"" width=150 style=\""vertical-align:middle\"">---生人""]","","",""
"","","","","","html-keyboard-response","151","540523","0.0-9.0-0.0-0.0-0.0-1.20","null","<span style='color:GreenYellow; font-size: 70px;'>正确! </span>","null","","","","","","","","","","","","","","","","","","","","","","","","","feedback_test","",""
"","","","","","psychophysics","152","542217","0.0-9.0-0.0-0.0-0.0-0.21","691","","f","","","","","","","","","","","","","key","f","16.664356435643334","640","356","f","true","../../test_img/15.png","朋友","matching_task","自我","[""<img src=\""../../test_img/15.png\"" width=150 style=\""vertical-align:middle\"">---自我"",""<img src=\""../../test_img/26.png\"" width=150 style=\""vertical-align:middle\"">---朋友"",""<img src=\""../../test_img/22.png\"" width=150 style=\""vertical-align:middle\"">---生人""]","","",""
"","","","","","html-keyboard-response","153","542725","0.0-9.0-0.0-0.0-0.0-1.21","null","<span style='color:GreenYellow; font-size: 70px;'>正确! </span>","null","","","","","","","","","","","","","","","","","","","","","","","","","feedback_test","",""
"","","","","","psychophysics","154","544485","0.0-9.0-0.0-0.0-0.0-0.22","758","","j","","","","","","","","","","","","","key","j","16.665384615385285","640","356","j","true","../../test_img/22.png","生人","matching_task","生人","[""<img src=\""../../test_img/15.png\"" width=150 style=\""vertical-align:middle\"">---自我"",""<img src=\""../../test_img/26.png\"" width=150 style=\""vertical-align:middle\"">---朋友"",""<img src=\""../../test_img/22.png\"" width=150 style=\""vertical-align:middle\"">---生人""]","","",""
"","","","","","html-keyboard-response","155","544994","0.0-9.0-0.0-0.0-0.0-1.22","null","<span style='color:GreenYellow; font-size: 70px;'>正确! </span>","null","","","","","","","","","","","","","","","","","","","","","","","","","feedback_test","",""
"","","","","","psychophysics","156","546713","0.0-9.0-0.0-0.0-0.0-0.23","704","","j","","","","","","","","","","","","","key","j","16.66372549019562","640","356","j","true","../../test_img/15.png","自我","matching_task","自我","[""<img src=\""../../test_img/15.png\"" width=150 style=\""vertical-align:middle\"">---自我"",""<img src=\""../../test_img/26.png\"" width=150 style=\""vertical-align:middle\"">---朋友"",""<img src=\""../../test_img/22.png\"" width=150 style=\""vertical-align:middle\"">---生人""]","","",""
"","","","","","html-keyboard-response","157","547223","0.0-9.0-0.0-0.0-0.0-1.23","null","<span style='color:GreenYellow; font-size: 70px;'>正确! </span>","null","","","","","","","","","","","","","","","","","","","","","","","","","feedback_test","",""
"","","","","","psychophysics","158","548941","0.0-9.0-0.0-0.0-0.0-0.24","716","","f","","","","","","","","","","","","","key","f","16.659405940593828","640","356","f","true","../../test_img/26.png","自我","matching_task","朋友","[""<img src=\""../../test_img/15.png\"" width=150 style=\""vertical-align:middle\"">---自我"",""<img src=\""../../test_img/26.png\"" width=150 style=\""vertical-align:middle\"">---朋友"",""<img src=\""../../test_img/22.png\"" width=150 style=\""vertical-align:middle\"">---生人""]","","",""
"","","","","","html-keyboard-response","159","549442","0.0-9.0-0.0-0.0-0.0-1.24","null","<span style='color:GreenYellow; font-size: 70px;'>正确! </span>","null","","","","","","","","","","","","","","","","","","","","","","","","","feedback_test","",""
"","","","","","psychophysics","160","551069","0.0-9.0-0.0-0.0-0.0-0.25","612","","j","","","","","","","","","","","","","key","j","16.66562499999903","640","356","j","true","../../test_img/22.png","生人","matching_task","生人","[""<img src=\""../../test_img/15.png\"" width=150 style=\""vertical-align:middle\"">---自我"",""<img src=\""../../test_img/26.png\"" width=150 style=\""vertical-align:middle\"">---朋友"",""<img src=\""../../test_img/22.png\"" width=150 style=\""vertical-align:middle\"">---生人""]","","",""
"","","","","","html-keyboard-response","161","551574","0.0-9.0-0.0-0.0-0.0-1.25","null","<span style='color:GreenYellow; font-size: 70px;'>正确! </span>","null","","","","","","","","","","","","","","","","","","","","","","","","","feedback_test","",""
"","","","","","psychophysics","162","553377","0.0-9.0-0.0-0.0-0.0-0.26","801","","f","","","","","","","","","","","","","key","f","16.664485981308193","640","356","f","true","../../test_img/26.png","生人","matching_task","朋友","[""<img src=\""../../test_img/15.png\"" width=150 style=\""vertical-align:middle\"">---自我"",""<img src=\""../../test_img/26.png\"" width=150 style=\""vertical-align:middle\"">---朋友"",""<img src=\""../../test_img/22.png\"" width=150 style=\""vertical-align:middle\"">---生人""]","","",""
"","","","","","html-keyboard-response","163","553891","0.0-9.0-0.0-0.0-0.0-1.26","null","<span style='color:GreenYellow; font-size: 70px;'>正确! </span>","null","","","","","","","","","","","","","","","","","","","","","","","","","feedback_test","",""
"","","","","","psychophysics","164","555589","0.0-9.0-0.0-0.0-0.0-0.27","686","","j","","","","","","","","","","","","","key","j","16.665","640","356","j","true","../../test_img/15.png","自我","matching_task","自我","[""<img src=\""../../test_img/15.png\"" width=150 style=\""vertical-align:middle\"">---自我"",""<img src=\""../../test_img/26.png\"" width=150 style=\""vertical-align:middle\"">---朋友"",""<img src=\""../../test_img/22.png\"" width=150 style=\""vertical-align:middle\"">---生人""]","","",""
"","","","","","html-keyboard-response","165","556091","0.0-9.0-0.0-0.0-0.0-1.27","null","<span style='color:GreenYellow; font-size: 70px;'>正确! </span>","null","","","","","","","","","","","","","","","","","","","","","","","","","feedback_test","",""
"","","","","","psychophysics","166","557897","0.0-9.0-0.0-0.0-0.0-0.28","797","","j","","","","","","","","","","","","","key","j","16.664485981308193","640","356","j","true","../../test_img/15.png","自我","matching_task","自我","[""<img src=\""../../test_img/15.png\"" width=150 style=\""vertical-align:middle\"">---自我"",""<img src=\""../../test_img/26.png\"" width=150 style=\""vertical-align:middle\"">---朋友"",""<img src=\""../../test_img/22.png\"" width=150 style=\""vertical-align:middle\"">---生人""]","","",""
"","","","","","html-keyboard-response","167","558408","0.0-9.0-0.0-0.0-0.0-1.28","null","<span style='color:GreenYellow; font-size: 70px;'>正确! </span>","null","","","","","","","","","","","","","","","","","","","","","","","","","feedback_test","",""
"","","","","","psychophysics","168","560402","0.0-9.0-0.0-0.0-0.0-0.29","986","","f","","","","","","","","","","","","","key","f","16.66440677966023","640","356","f","true","../../test_img/22.png","朋友","matching_task","生人","[""<img src=\""../../test_img/15.png\"" width=150 style=\""vertical-align:middle\"">---自我"",""<img src=\""../../test_img/26.png\"" width=150 style=\""vertical-align:middle\"">---朋友"",""<img src=\""../../test_img/22.png\"" width=150 style=\""vertical-align:middle\"">---生人""]","","",""
"","","","","","html-keyboard-response","169","560912","0.0-9.0-0.0-0.0-0.0-1.29","null","<span style='color:GreenYellow; font-size: 70px;'>正确! </span>","null","","","","","","","","","","","","","","","","","","","","","","","","","feedback_test","",""
"","","","","","psychophysics","170","562894","0.0-9.0-0.0-0.0-0.0-0.30","978","","f","","","","","","","","","","","","","key","f","16.665254237288135","640","356","f","true","../../test_img/15.png","生人","matching_task","自我","[""<img src=\""../../test_img/15.png\"" width=150 style=\""vertical-align:middle\"">---自我"",""<img src=\""../../test_img/26.png\"" width=150 style=\""vertical-align:middle\"">---朋友"",""<img src=\""../../test_img/22.png\"" width=150 style=\""vertical-align:middle\"">---生人""]","","",""
"","","","","","html-keyboard-response","171","563404","0.0-9.0-0.0-0.0-0.0-1.30","null","<span style='color:GreenYellow; font-size: 70px;'>正确! </span>","null","","","","","","","","","","","","","","","","","","","","","","","","","feedback_test","",""
"","","","","","psychophysics","172","565622","0.0-9.0-0.0-0.0-0.0-0.31","1216","","f","","","","","","","","","","","","","key","f","16.664393939393587","640","356","f","true","../../test_img/22.png","自我","matching_task","生人","[""<img src=\""../../test_img/15.png\"" width=150 style=\""vertical-align:middle\"">---自我"",""<img src=\""../../test_img/26.png\"" width=150 style=\""vertical-align:middle\"">---朋友"",""<img src=\""../../test_img/22.png\"" width=150 style=\""vertical-align:middle\"">---生人""]","","",""
"","","","","","html-keyboard-response","173","566132","0.0-9.0-0.0-0.0-0.0-1.31","null","<span style='color:GreenYellow; font-size: 70px;'>正确! </span>","null","","","","","","","","","","","","","","","","","","","","","","","","","feedback_test","",""
"","","","","","psychophysics","174","568094","0.0-9.0-0.0-0.0-0.0-0.32","958","","j","","","","","","","","","","","","","key","j","16.664102564102166","640","356","j","true","../../test_img/26.png","朋友","matching_task","朋友","[""<img src=\""../../test_img/15.png\"" width=150 style=\""vertical-align:middle\"">---自我"",""<img src=\""../../test_img/26.png\"" width=150 style=\""vertical-align:middle\"">---朋友"",""<img src=\""../../test_img/22.png\"" width=150 style=\""vertical-align:middle\"">---生人""]","","",""
"","","","","","html-keyboard-response","175","568608","0.0-9.0-0.0-0.0-0.0-1.32","null","<span style='color:GreenYellow; font-size: 70px;'>正确! </span>","null","","","","","","","","","","","","","","","","","","","","","","","","","feedback_test","",""
"","","","","","psychophysics","176","570397","0.0-9.0-0.0-0.0-0.0-0.33","775","","f","","","","","","","","","","","","","key","f","16.664150943396447","640","356","f","true","../../test_img/15.png","朋友","matching_task","自我","[""<img src=\""../../test_img/15.png\"" width=150 style=\""vertical-align:middle\"">---自我"",""<img src=\""../../test_img/26.png\"" width=150 style=\""vertical-align:middle\"">---朋友"",""<img src=\""../../test_img/22.png\"" width=150 style=\""vertical-align:middle\"">---生人""]","","",""
"","","","","","html-keyboard-response","177","570898","0.0-9.0-0.0-0.0-0.0-1.33","null","<span style='color:GreenYellow; font-size: 70px;'>正确! </span>","null","","","","","","","","","","","","","","","","","","","","","","","","","feedback_test","",""
"","","","","","psychophysics","178","572596","0.0-9.0-0.0-0.0-0.0-0.34","694","","j","","","","","","","","","","","","","key","j","16.665346534653004","640","356","j","true","../../test_img/26.png","朋友","matching_task","朋友","[""<img src=\""../../test_img/15.png\"" width=150 style=\""vertical-align:middle\"">---自我"",""<img src=\""../../test_img/26.png\"" width=150 style=\""vertical-align:middle\"">---朋友"",""<img src=\""../../test_img/22.png\"" width=150 style=\""vertical-align:middle\"">---生人""]","","",""
"","","","","","html-keyboard-response","179","573104","0.0-9.0-0.0-0.0-0.0-1.34","null","<span style='color:GreenYellow; font-size: 70px;'>正确! </span>","null","","","","","","","","","","","","","","","","","","","","","","","","","feedback_test","",""
"","","","","","psychophysics","180","574742","0.0-9.0-0.0-0.0-0.0-0.35","637","","j","","","","","","","","","","","","","key","j","16.660824742267803","640","356","j","true","../../test_img/22.png","生人","matching_task","生人","[""<img src=\""../../test_img/15.png\"" width=150 style=\""vertical-align:middle\"">---自我"",""<img src=\""../../test_img/26.png\"" width=150 style=\""vertical-align:middle\"">---朋友"",""<img src=\""../../test_img/22.png\"" width=150 style=\""vertical-align:middle\"">---生人""]","","",""
"","","","","","html-keyboard-response","181","575246","0.0-9.0-0.0-0.0-0.0-1.35","null","<span style='color:GreenYellow; font-size: 70px;'>正确! </span>","null","","","","","","","","","","","","","","","","","","","","","","","","","feedback_test","",""
"","","","","","psychophysics","182","576920","0.0-9.0-0.0-0.0-0.0-0.36","667","","f","","","","","","","","","","","","","key","f","16.664646464646935","640","356","f","true","../../test_img/26.png","自我","matching_task","朋友","[""<img src=\""../../test_img/15.png\"" width=150 style=\""vertical-align:middle\"">---自我"",""<img src=\""../../test_img/26.png\"" width=150 style=\""vertical-align:middle\"">---朋友"",""<img src=\""../../test_img/22.png\"" width=150 style=\""vertical-align:middle\"">---生人""]","","",""
"","","","","","html-keyboard-response","183","577423","0.0-9.0-0.0-0.0-0.0-1.36","null","<span style='color:GreenYellow; font-size: 70px;'>正确! </span>","null","","","","","","","","","","","","","","","","","","","","","","","","","feedback_test","",""
"","","","","","psychophysics","184","579124","0.0-9.0-0.0-0.0-0.0-0.37","688","","j","","","","","","","","","","","","","key","j","16.664356435643334","640","356","j","true","../../test_img/26.png","朋友","matching_task","朋友","[""<img src=\""../../test_img/15.png\"" width=150 style=\""vertical-align:middle\"">---自我"",""<img src=\""../../test_img/26.png\"" width=150 style=\""vertical-align:middle\"">---朋友"",""<img src=\""../../test_img/22.png\"" width=150 style=\""vertical-align:middle\"">---生人""]","","",""
"","","","","","html-keyboard-response","185","579625","0.0-9.0-0.0-0.0-0.0-1.37","null","<span style='color:GreenYellow; font-size: 70px;'>正确! </span>","null","","","","","","","","","","","","","","","","","","","","","","","","","feedback_test","",""
"","","","","","psychophysics","186","581296","0.0-9.0-0.0-0.0-0.0-0.38","659","","f","","","","","","","","","","","","","key","f","16.66363636363589","640","356","f","true","../../test_img/15.png","朋友","matching_task","自我","[""<img src=\""../../test_img/15.png\"" width=150 style=\""vertical-align:middle\"">---自我"",""<img src=\""../../test_img/26.png\"" width=150 style=\""vertical-align:middle\"">---朋友"",""<img src=\""../../test_img/22.png\"" width=150 style=\""vertical-align:middle\"">---生人""]","","",""
"","","","","","html-keyboard-response","187","581807","0.0-9.0-0.0-0.0-0.0-1.38","null","<span style='color:GreenYellow; font-size: 70px;'>正确! </span>","null","","","","","","","","","","","","","","","","","","","","","","","","","feedback_test","",""
"","","","","","psychophysics","188","583451","0.0-9.0-0.0-0.0-0.0-0.39","633","","j","","","","","","","","","","","","","key","j","16.664948453608247","640","356","j","true","../../test_img/15.png","自我","matching_task","自我","[""<img src=\""../../test_img/15.png\"" width=150 style=\""vertical-align:middle\"">---自我"",""<img src=\""../../test_img/26.png\"" width=150 style=\""vertical-align:middle\"">---朋友"",""<img src=\""../../test_img/22.png\"" width=150 style=\""vertical-align:middle\"">---生人""]","","",""
"","","","","","html-keyboard-response","189","583951","0.0-9.0-0.0-0.0-0.0-1.39","null","<span style='color:GreenYellow; font-size: 70px;'>正确! </span>","null","","","","","","","","","","","","","","","","","","","","","","","","","feedback_test","",""
"","","","","","psychophysics","190","585832","0.0-9.0-0.0-0.0-0.0-0.40","878","","f","","","","","","","","","","","","","key","f","16.66428571428592","640","356","f","true","../../test_img/22.png","自我","matching_task","生人","[""<img src=\""../../test_img/15.png\"" width=150 style=\""vertical-align:middle\"">---自我"",""<img src=\""../../test_img/26.png\"" width=150 style=\""vertical-align:middle\"">---朋友"",""<img src=\""../../test_img/22.png\"" width=150 style=\""vertical-align:middle\"">---生人""]","","",""
"","","","","","html-keyboard-response","191","586341","0.0-9.0-0.0-0.0-0.0-1.40","null","<span style='color:GreenYellow; font-size: 70px;'>正确! </span>","null","","","","","","","","","","","","","","","","","","","","","","","","","feedback_test","",""
"","","","","","psychophysics","192","588045","0.0-9.0-0.0-0.0-0.0-0.41","692","","j","","","","","","","","","","","","","key","j","16.664356435644486","640","356","j","true","../../test_img/26.png","朋友","matching_task","朋友","[""<img src=\""../../test_img/15.png\"" width=150 style=\""vertical-align:middle\"">---自我"",""<img src=\""../../test_img/26.png\"" width=150 style=\""vertical-align:middle\"">---朋友"",""<img src=\""../../test_img/22.png\"" width=150 style=\""vertical-align:middle\"">---生人""]","","",""
"","","","","","html-keyboard-response","193","588556","0.0-9.0-0.0-0.0-0.0-1.41","null","<span style='color:GreenYellow; font-size: 70px;'>正确! </span>","null","","","","","","","","","","","","","","","","","","","","","","","","","feedback_test","",""
"","","","","","psychophysics","194","590443","0.0-9.0-0.0-0.0-0.0-0.42","885","","f","","","","","","","","","","","","","key","f","16.665178571428573","640","356","f","true","../../test_img/15.png","生人","matching_task","自我","[""<img src=\""../../test_img/15.png\"" width=150 style=\""vertical-align:middle\"">---自我"",""<img src=\""../../test_img/26.png\"" width=150 style=\""vertical-align:middle\"">---朋友"",""<img src=\""../../test_img/22.png\"" width=150 style=\""vertical-align:middle\"">---生人""]","","",""
"","","","","","html-keyboard-response","195","590954","0.0-9.0-0.0-0.0-0.0-1.42","null","<span style='color:GreenYellow; font-size: 70px;'>正确! </span>","null","","","","","","","","","","","","","","","","","","","","","","","","","feedback_test","",""
"","","","","","psychophysics","196","592847","0.0-9.0-0.0-0.0-0.0-0.43","881","","f","","","","","","","","","","","","","key","f","16.66428571428592","640","356","f","true","../../test_img/26.png","生人","matching_task","朋友","[""<img src=\""../../test_img/15.png\"" width=150 style=\""vertical-align:middle\"">---自我"",""<img src=\""../../test_img/26.png\"" width=150 style=\""vertical-align:middle\"">---朋友"",""<img src=\""../../test_img/22.png\"" width=150 style=\""vertical-align:middle\"">---生人""]","","",""
"","","","","","html-keyboard-response","197","593353","0.0-9.0-0.0-0.0-0.0-1.43","null","<span style='color:GreenYellow; font-size: 70px;'>正确! </span>","null","","","","","","","","","","","","","","","","","","","","","","","","","feedback_test","",""
"","","","","","psychophysics","198","595040","0.0-9.0-0.0-0.0-0.0-0.44","672","","j","","","","","","","","","","","","","key","j","16.665999999999766","640","356","j","true","../../test_img/15.png","自我","matching_task","自我","[""<img src=\""../../test_img/15.png\"" width=150 style=\""vertical-align:middle\"">---自我"",""<img src=\""../../test_img/26.png\"" width=150 style=\""vertical-align:middle\"">---朋友"",""<img src=\""../../test_img/22.png\"" width=150 style=\""vertical-align:middle\"">---生人""]","","",""
"","","","","","html-keyboard-response","199","595546","0.0-9.0-0.0-0.0-0.0-1.44","null","<span style='color:GreenYellow; font-size: 70px;'>正确! </span>","null","","","","","","","","","","","","","","","","","","","","","","","","","feedback_test","",""
"","","","","","psychophysics","200","597358","0.0-9.0-0.0-0.0-0.0-0.45","807","","f","","","","","","","","","","","","","key","f","16.664814814814168","640","356","f","true","../../test_img/22.png","朋友","matching_task","生人","[""<img src=\""../../test_img/15.png\"" width=150 style=\""vertical-align:middle\"">---自我"",""<img src=\""../../test_img/26.png\"" width=150 style=\""vertical-align:middle\"">---朋友"",""<img src=\""../../test_img/22.png\"" width=150 style=\""vertical-align:middle\"">---生人""]","","",""
"","","","","","html-keyboard-response","201","597873","0.0-9.0-0.0-0.0-0.0-1.45","null","<span style='color:GreenYellow; font-size: 70px;'>正确! </span>","null","","","","","","","","","","","","","","","","","","","","","","","","","feedback_test","",""
"","","","","","psychophysics","202","599647","0.0-9.0-0.0-0.0-0.0-0.46","768","","j","","","","","","","","","","","","","key","j","16.663809523809082","640","356","j","true","../../test_img/22.png","生人","matching_task","生人","[""<img src=\""../../test_img/15.png\"" width=150 style=\""vertical-align:middle\"">---自我"",""<img src=\""../../test_img/26.png\"" width=150 style=\""vertical-align:middle\"">---朋友"",""<img src=\""../../test_img/22.png\"" width=150 style=\""vertical-align:middle\"">---生人""]","","",""
"","","","","","html-keyboard-response","203","600156","0.0-9.0-0.0-0.0-0.0-1.46","null","<span style='color:GreenYellow; font-size: 70px;'>正确! </span>","null","","","","","","","","","","","","","","","","","","","","","","","","","feedback_test","",""
"","","","","","psychophysics","204","602003","0.0-9.0-0.0-0.0-0.0-0.47","835","","f","","","","","","","","","","","","","key","f","16.664545454545244","640","356","j","false","../../test_img/22.png","生人","matching_task","生人","[""<img src=\""../../test_img/15.png\"" width=150 style=\""vertical-align:middle\"">---自我"",""<img src=\""../../test_img/26.png\"" width=150 style=\""vertical-align:middle\"">---朋友"",""<img src=\""../../test_img/22.png\"" width=150 style=\""vertical-align:middle\"">---生人""]","","",""
"","","","","","html-keyboard-response","205","602517","0.0-9.0-0.0-0.0-0.0-1.47","null","<span style='color:red; font-size: 70px;'>错误! </span>","null","","","","","","","","","","","","","","","","","","","","","","","","","feedback_test","",""
"","","","","","psychophysics","206","604191","0.0-9.0-0.0-0.0-0.0-0.48","673","","f","","","","","","","","","","","","","key","f","16.652525252525017","640","356","f","true","../../test_img/26.png","生人","matching_task","朋友","[""<img src=\""../../test_img/15.png\"" width=150 style=\""vertical-align:middle\"">---自我"",""<img src=\""../../test_img/26.png\"" width=150 style=\""vertical-align:middle\"">---朋友"",""<img src=\""../../test_img/22.png\"" width=150 style=\""vertical-align:middle\"">---生人""]","","",""
"","","","","","html-keyboard-response","207","604697","0.0-9.0-0.0-0.0-0.0-1.48","null","<span style='color:GreenYellow; font-size: 70px;'>正确! </span>","null","","","","","","","","","","","","","","","","","","","","","","","","","feedback_test","",""
"","","","","","psychophysics","208","606295","0.0-9.0-0.0-0.0-0.0-0.49","597","","j","","","","","","","","","","","","","key","j","16.66421052631677","640","356","j","true","../../test_img/15.png","自我","matching_task","自我","[""<img src=\""../../test_img/15.png\"" width=150 style=\""vertical-align:middle\"">---自我"",""<img src=\""../../test_img/26.png\"" width=150 style=\""vertical-align:middle\"">---朋友"",""<img src=\""../../test_img/22.png\"" width=150 style=\""vertical-align:middle\"">---生人""]","","",""
"","","","","","html-keyboard-response","209","606802","0.0-9.0-0.0-0.0-0.0-1.49","null","<span style='color:GreenYellow; font-size: 70px;'>正确! </span>","null","","","","","","","","","","","","","","","","","","","","","","","","","feedback_test","",""
"","","","","","psychophysics","210","608692","0.0-9.0-0.0-0.0-0.0-0.50","882","","j","","","","","","","","","","","","","key","j","16.665178571428573","640","356","j","true","../../test_img/15.png","自我","matching_task","自我","[""<img src=\""../../test_img/15.png\"" width=150 style=\""vertical-align:middle\"">---自我"",""<img src=\""../../test_img/26.png\"" width=150 style=\""vertical-align:middle\"">---朋友"",""<img src=\""../../test_img/22.png\"" width=150 style=\""vertical-align:middle\"">---生人""]","","",""
"","","","","","html-keyboard-response","211","609199","0.0-9.0-0.0-0.0-0.0-1.50","null","<span style='color:GreenYellow; font-size: 70px;'>正确! </span>","null","","","","","","","","","","","","","","","","","","","","","","","","","feedback_test","",""
"","","","","","psychophysics","212","610970","0.0-9.0-0.0-0.0-0.0-0.51","770","","j","","","","","","","","","","","","","key","j","16.65428571428638","640","356","j","true","../../test_img/22.png","生人","matching_task","生人","[""<img src=\""../../test_img/15.png\"" width=150 style=\""vertical-align:middle\"">---自我"",""<img src=\""../../test_img/26.png\"" width=150 style=\""vertical-align:middle\"">---朋友"",""<img src=\""../../test_img/22.png\"" width=150 style=\""vertical-align:middle\"">---生人""]","","",""
"","","","","","html-keyboard-response","213","611481","0.0-9.0-0.0-0.0-0.0-1.51","null","<span style='color:GreenYellow; font-size: 70px;'>正确! </span>","null","","","","","","","","","","","","","","","","","","","","","","","","","feedback_test","",""
"","","","","","psychophysics","214","613597","0.0-9.0-0.0-0.0-0.0-0.52","1114","","f","","","","","","","","","","","","","key","f","16.66349206349188","640","356","j","false","../../test_img/26.png","朋友","matching_task","朋友","[""<img src=\""../../test_img/15.png\"" width=150 style=\""vertical-align:middle\"">---自我"",""<img src=\""../../test_img/26.png\"" width=150 style=\""vertical-align:middle\"">---朋友"",""<img src=\""../../test_img/22.png\"" width=150 style=\""vertical-align:middle\"">---生人""]","","",""
"","","","","","html-keyboard-response","215","614099","0.0-9.0-0.0-0.0-0.0-1.52","null","<span style='color:red; font-size: 70px;'>错误! </span>","null","","","","","","","","","","","","","","","","","","","","","","","","","feedback_test","",""
"","","","","","psychophysics","216","616347","0.0-9.0-0.0-0.0-0.0-0.53","1236","","f","","","","","","","","","","","","","key","f","16.657142857143032","640","356","f","true","../../test_img/22.png","朋友","matching_task","生人","[""<img src=\""../../test_img/15.png\"" width=150 style=\""vertical-align:middle\"">---自我"",""<img src=\""../../test_img/26.png\"" width=150 style=\""vertical-align:middle\"">---朋友"",""<img src=\""../../test_img/22.png\"" width=150 style=\""vertical-align:middle\"">---生人""]","","",""
"","","","","","html-keyboard-response","217","616858","0.0-9.0-0.0-0.0-0.0-1.53","null","<span style='color:GreenYellow; font-size: 70px;'>正确! </span>","null","","","","","","","","","","","","","","","","","","","","","","","","","feedback_test","",""
"","","","","","psychophysics","218","618678","0.0-9.0-0.0-0.0-0.0-0.54","813","","f","","","","","","","","","","","","","key","f","16.664814814815244","640","356","j","false","../../test_img/26.png","朋友","matching_task","朋友","[""<img src=\""../../test_img/15.png\"" width=150 style=\""vertical-align:middle\"">---自我"",""<img src=\""../../test_img/26.png\"" width=150 style=\""vertical-align:middle\"">---朋友"",""<img src=\""../../test_img/22.png\"" width=150 style=\""vertical-align:middle\"">---生人""]","","",""
"","","","","","html-keyboard-response","219","619187","0.0-9.0-0.0-0.0-0.0-1.54","null","<span style='color:red; font-size: 70px;'>错误! </span>","null","","","","","","","","","","","","","","","","","","","","","","","","","feedback_test","",""
"","","","","","psychophysics","220","620861","0.0-9.0-0.0-0.0-0.0-0.55","663","","f","","","","","","","","","","","","","key","f","16.664646464646935","640","356","f","true","../../test_img/15.png","朋友","matching_task","自我","[""<img src=\""../../test_img/15.png\"" width=150 style=\""vertical-align:middle\"">---自我"",""<img src=\""../../test_img/26.png\"" width=150 style=\""vertical-align:middle\"">---朋友"",""<img src=\""../../test_img/22.png\"" width=150 style=\""vertical-align:middle\"">---生人""]","","",""
"","","","","","html-keyboard-response","221","621369","0.0-9.0-0.0-0.0-0.0-1.55","null","<span style='color:GreenYellow; font-size: 70px;'>正确! </span>","null","","","","","","","","","","","","","","","","","","","","","","","","","feedback_test","",""
"","","","","","psychophysics","222","623339","0.0-9.0-0.0-0.0-0.0-0.56","963","","j","","","","","","","","","","","","","key","j","16.664957264957664","640","356","j","true","../../test_img/22.png","生人","matching_task","生人","[""<img src=\""../../test_img/15.png\"" width=150 style=\""vertical-align:middle\"">---自我"",""<img src=\""../../test_img/26.png\"" width=150 style=\""vertical-align:middle\"">---朋友"",""<img src=\""../../test_img/22.png\"" width=150 style=\""vertical-align:middle\"">---生人""]","","",""
"","","","","","html-keyboard-response","223","623845","0.0-9.0-0.0-0.0-0.0-1.56","null","<span style='color:GreenYellow; font-size: 70px;'>正确! </span>","null","","","","","","","","","","","","","","","","","","","","","","","","","feedback_test","",""
"","","","","","psychophysics","224","625692","0.0-9.0-0.0-0.0-0.0-0.57","844","","f","","","","","","","","","","","","","key","f","16.66545454545412","640","356","f","true","../../test_img/26.png","自我","matching_task","朋友","[""<img src=\""../../test_img/15.png\"" width=150 style=\""vertical-align:middle\"">---自我"",""<img src=\""../../test_img/26.png\"" width=150 style=\""vertical-align:middle\"">---朋友"",""<img src=\""../../test_img/22.png\"" width=150 style=\""vertical-align:middle\"">---生人""]","","",""
"","","","","","html-keyboard-response","225","626206","0.0-9.0-0.0-0.0-0.0-1.57","null","<span style='color:GreenYellow; font-size: 70px;'>正确! </span>","null","","","","","","","","","","","","","","","","","","","","","","","","","feedback_test","",""
"","","","","","psychophysics","226","628051","0.0-9.0-0.0-0.0-0.0-0.58","836","","f","","","","","","","","","","","","","key","f","16.664545454545244","640","356","f","true","../../test_img/22.png","自我","matching_task","生人","[""<img src=\""../../test_img/15.png\"" width=150 style=\""vertical-align:middle\"">---自我"",""<img src=\""../../test_img/26.png\"" width=150 style=\""vertical-align:middle\"">---朋友"",""<img src=\""../../test_img/22.png\"" width=150 style=\""vertical-align:middle\"">---生人""]","","",""
"","","","","","html-keyboard-response","227","628565","0.0-9.0-0.0-0.0-0.0-1.58","null","<span style='color:GreenYellow; font-size: 70px;'>正确! </span>","null","","","","","","","","","","","","","","","","","","","","","","","","","feedback_test","",""
"","","","","","psychophysics","228","630353","0.0-9.0-0.0-0.0-0.0-0.59","776","","f","","","","","","","","","","","","","key","f","16.664150943396447","640","356","f","true","../../test_img/15.png","生人","matching_task","自我","[""<img src=\""../../test_img/15.png\"" width=150 style=\""vertical-align:middle\"">---自我"",""<img src=\""../../test_img/26.png\"" width=150 style=\""vertical-align:middle\"">---朋友"",""<img src=\""../../test_img/22.png\"" width=150 style=\""vertical-align:middle\"">---生人""]","","",""
"","","","","","html-keyboard-response","229","630856","0.0-9.0-0.0-0.0-0.0-1.59","null","<span style='color:GreenYellow; font-size: 70px;'>正确! </span>","null","","","","","","","","","","","","","","","","","","","","","","","","","feedback_test","",""
"","","","","","psychophysics","230","632471","0.0-9.0-0.0-0.0-0.0-0.60","607","","j","","","","","","","","","","","","","key","j","16.665625000000244","640","356","j","true","../../test_img/15.png","自我","matching_task","自我","[""<img src=\""../../test_img/15.png\"" width=150 style=\""vertical-align:middle\"">---自我"",""<img src=\""../../test_img/26.png\"" width=150 style=\""vertical-align:middle\"">---朋友"",""<img src=\""../../test_img/22.png\"" width=150 style=\""vertical-align:middle\"">---生人""]","","",""
"","","","","","html-keyboard-response","231","632975","0.0-9.0-0.0-0.0-0.0-1.60","null","<span style='color:GreenYellow; font-size: 70px;'>正确! </span>","null","","","","","","","","","","","","","","","","","","","","","","","","","feedback_test","",""
"","","","","","psychophysics","232","634754","0.0-9.0-0.0-0.0-0.0-0.61","774","","f","","","","","","","","","","","","","key","f","16.664150943396447","640","356","j","false","../../test_img/22.png","生人","matching_task","生人","[""<img src=\""../../test_img/15.png\"" width=150 style=\""vertical-align:middle\"">---自我"",""<img src=\""../../test_img/26.png\"" width=150 style=\""vertical-align:middle\"">---朋友"",""<img src=\""../../test_img/22.png\"" width=150 style=\""vertical-align:middle\"">---生人""]","","",""
"","","","","","html-keyboard-response","233","635264","0.0-9.0-0.0-0.0-0.0-1.61","null","<span style='color:red; font-size: 70px;'>错误! </span>","null","","","","","","","","","","","","","","","","","","","","","","","","","feedback_test","",""
"","","","","","psychophysics","234","637142","0.0-9.0-0.0-0.0-0.0-0.62","862","","f","","","","","","","","","","","","","key","f","16.663963963964594","640","356","j","false","../../test_img/26.png","朋友","matching_task","朋友","[""<img src=\""../../test_img/15.png\"" width=150 style=\""vertical-align:middle\"">---自我"",""<img src=\""../../test_img/26.png\"" width=150 style=\""vertical-align:middle\"">---朋友"",""<img src=\""../../test_img/22.png\"" width=150 style=\""vertical-align:middle\"">---生人""]","","",""
"","","","","","html-keyboard-response","235","637644","0.0-9.0-0.0-0.0-0.0-1.62","null","<span style='color:red; font-size: 70px;'>错误! </span>","null","","","","","","","","","","","","","","","","","","","","","","","","","feedback_test","",""
"","","","","","psychophysics","236","639346","0.0-9.0-0.0-0.0-0.0-0.63","700","","f","","","","","","","","","","","","","key","f","16.664356435643334","640","356","f","true","../../test_img/15.png","生人","matching_task","自我","[""<img src=\""../../test_img/15.png\"" width=150 style=\""vertical-align:middle\"">---自我"",""<img src=\""../../test_img/26.png\"" width=150 style=\""vertical-align:middle\"">---朋友"",""<img src=\""../../test_img/22.png\"" width=150 style=\""vertical-align:middle\"">---生人""]","","",""
"","","","","","html-keyboard-response","237","639861","0.0-9.0-0.0-0.0-0.0-1.63","null","<span style='color:GreenYellow; font-size: 70px;'>正确! </span>","null","","","","","","","","","","","","","","","","","","","","","","","","","feedback_test","",""
"","","","","","psychophysics","238","641624","0.0-9.0-0.0-0.0-0.0-0.64","762","","j","","","","","","","","","","","","","key","j","16.65961538461516","640","356","j","true","../../test_img/26.png","朋友","matching_task","朋友","[""<img src=\""../../test_img/15.png\"" width=150 style=\""vertical-align:middle\"">---自我"",""<img src=\""../../test_img/26.png\"" width=150 style=\""vertical-align:middle\"">---朋友"",""<img src=\""../../test_img/22.png\"" width=150 style=\""vertical-align:middle\"">---生人""]","","",""
"","","","","","html-keyboard-response","239","642127","0.0-9.0-0.0-0.0-0.0-1.64","null","<span style='color:GreenYellow; font-size: 70px;'>正确! </span>","null","","","","","","","","","","","","","","","","","","","","","","","","","feedback_test","",""
"","","","","","psychophysics","240","643841","0.0-9.0-0.0-0.0-0.0-0.65","712","","j","","","","","","","","","","","","","key","j","16.663921568627178","640","356","j","true","../../test_img/15.png","自我","matching_task","自我","[""<img src=\""../../test_img/15.png\"" width=150 style=\""vertical-align:middle\"">---自我"",""<img src=\""../../test_img/26.png\"" width=150 style=\""vertical-align:middle\"">---朋友"",""<img src=\""../../test_img/22.png\"" width=150 style=\""vertical-align:middle\"">---生人""]","","",""
"","","","","","html-keyboard-response","241","644352","0.0-9.0-0.0-0.0-0.0-1.65","null","<span style='color:GreenYellow; font-size: 70px;'>正确! </span>","null","","","","","","","","","","","","","","","","","","","","","","","","","feedback_test","",""
"","","","","","psychophysics","242","646080","0.0-9.0-0.0-0.0-0.0-0.66","718","","f","","","","","","","","","","","","","key","f","16.66504854368932","640","356","f","true","../../test_img/26.png","自我","matching_task","朋友","[""<img src=\""../../test_img/15.png\"" width=150 style=\""vertical-align:middle\"">---自我"",""<img src=\""../../test_img/26.png\"" width=150 style=\""vertical-align:middle\"">---朋友"",""<img src=\""../../test_img/22.png\"" width=150 style=\""vertical-align:middle\"">---生人""]","","",""
"","","","","","html-keyboard-response","243","646592","0.0-9.0-0.0-0.0-0.0-1.66","null","<span style='color:GreenYellow; font-size: 70px;'>正确! </span>","null","","","","","","","","","","","","","","","","","","","","","","","","","feedback_test","",""
"","","","","","psychophysics","244","648507","0.0-9.0-0.0-0.0-0.0-0.67","912","","f","","","","","","","","","","","","","key","f","16.66403508771889","640","356","f","true","../../test_img/22.png","朋友","matching_task","生人","[""<img src=\""../../test_img/15.png\"" width=150 style=\""vertical-align:middle\"">---自我"",""<img src=\""../../test_img/26.png\"" width=150 style=\""vertical-align:middle\"">---朋友"",""<img src=\""../../test_img/22.png\"" width=150 style=\""vertical-align:middle\"">---生人""]","","",""
"","","","","","html-keyboard-response","245","649021","0.0-9.0-0.0-0.0-0.0-1.67","null","<span style='color:GreenYellow; font-size: 70px;'>正确! </span>","null","","","","","","","","","","","","","","","","","","","","","","","","","feedback_test","",""
"","","","","","psychophysics","246","651081","0.0-9.0-0.0-0.0-0.0-0.68","1059","","j","","","","","","","","","","","","","key","j","16.66422764227699","640","356","f","false","../../test_img/22.png","自我","matching_task","生人","[""<img src=\""../../test_img/15.png\"" width=150 style=\""vertical-align:middle\"">---自我"",""<img src=\""../../test_img/26.png\"" width=150 style=\""vertical-align:middle\"">---朋友"",""<img src=\""../../test_img/22.png\"" width=150 style=\""vertical-align:middle\"">---生人""]","","",""
"","","","","","html-keyboard-response","247","651583","0.0-9.0-0.0-0.0-0.0-1.68","null","<span style='color:red; font-size: 70px;'>错误! </span>","null","","","","","","","","","","","","","","","","","","","","","","","","","feedback_test","",""
"","","","","","psychophysics","248","653313","0.0-9.0-0.0-0.0-0.0-0.69","719","","f","","","","","","","","","","","","","key","f","16.66504854368932","640","356","f","true","../../test_img/26.png","生人","matching_task","朋友","[""<img src=\""../../test_img/15.png\"" width=150 style=\""vertical-align:middle\"">---自我"",""<img src=\""../../test_img/26.png\"" width=150 style=\""vertical-align:middle\"">---朋友"",""<img src=\""../../test_img/22.png\"" width=150 style=\""vertical-align:middle\"">---生人""]","","",""
"","","","","","html-keyboard-response","249","653826","0.0-9.0-0.0-0.0-0.0-1.69","null","<span style='color:GreenYellow; font-size: 70px;'>正确! </span>","null","","","","","","","","","","","","","","","","","","","","","","","","","feedback_test","",""
"","","","","","psychophysics","250","655896","0.0-9.0-0.0-0.0-0.0-0.70","1068","","f","","","","","","","","","","","","","key","f","16.652845528455664","640","356","f","true","../../test_img/15.png","朋友","matching_task","自我","[""<img src=\""../../test_img/15.png\"" width=150 style=\""vertical-align:middle\"">---自我"",""<img src=\""../../test_img/26.png\"" width=150 style=\""vertical-align:middle\"">---朋友"",""<img src=\""../../test_img/22.png\"" width=150 style=\""vertical-align:middle\"">---生人""]","","",""
"","","","","","html-keyboard-response","251","656396","0.0-9.0-0.0-0.0-0.0-1.70","null","<span style='color:GreenYellow; font-size: 70px;'>正确! </span>","null","","","","","","","","","","","","","","","","","","","","","","","","","feedback_test","",""
"","","","","","psychophysics","252","658224","0.0-9.0-0.0-0.0-0.0-0.71","813","","j","","","","","","","","","","","","","key","j","16.664814814815244","640","356","j","true","../../test_img/22.png","生人","matching_task","生人","[""<img src=\""../../test_img/15.png\"" width=150 style=\""vertical-align:middle\"">---自我"",""<img src=\""../../test_img/26.png\"" width=150 style=\""vertical-align:middle\"">---朋友"",""<img src=\""../../test_img/22.png\"" width=150 style=\""vertical-align:middle\"">---生人""]","","",""
"","","","","","html-keyboard-response","253","658737","0.0-9.0-0.0-0.0-0.0-1.71","null","<span style='color:GreenYellow; font-size: 70px;'>正确! </span>","null","","","","","","","","","","","","","","","","","","","","","","","","","feedback_test","",""
"","","","","","html-keyboard-response","254","664080","0.0-9.0-0.0-0.0-1.0","5341","<style>.context{color:white; font-size: 35px; line-height:40px}</style>                          <div><p class='context'>您正确回答了90% 的试次。</p><p class='context'>您的平均反应时为817毫秒。</p><p class='context'>请按任意键进入休息</p></div>"," ","","","","","","","","","","","","","","","","","","","","","","","","","","",""
"","","","","","html-button-response","255","693828","0.0-9.0-0.0-0.0-2.0","29744","
                    <p>知觉匹配任务中，您还剩余4组实验</p>
                    <p>现在是休息时间，当您结束休息后，您可以点击 结束休息 按钮 继续</p>
                    <p>建议休息时间还剩余<span id=""iii"">60</span>秒</p>","0","","","","","","","","","","","","","","","","","","","","","","","","","","",""
"","","","","","psychophysics","256","695710","0.0-9.0-0.0-0.0-0.1-0.72","872","","f","","","","","","","","","","","","","key","f","16.66428571428592","640","356","f","true","../../test_img/15.png","生人","matching_task","自我","[""<img src=\""../../test_img/15.png\"" width=150 style=\""vertical-align:middle\"">---自我"",""<img src=\""../../test_img/26.png\"" width=150 style=\""vertical-align:middle\"">---朋友"",""<img src=\""../../test_img/22.png\"" width=150 style=\""vertical-align:middle\"">---生人""]","","",""
"","","","","","html-keyboard-response","257","696219","0.0-9.0-0.0-0.0-0.1-1.72","null","<span style='color:GreenYellow; font-size: 70px;'>正确! </span>","null","","","","","","","","","","","","","","","","","","","","","","","","","feedback_test","",""
"","","","","","psychophysics","258","698032","0.0-9.0-0.0-0.0-0.1-0.73","811","","j","","","","","","","","","","","","","key","j","16.6532710280376","640","356","j","true","../../test_img/15.png","自我","matching_task","自我","[""<img src=\""../../test_img/15.png\"" width=150 style=\""vertical-align:middle\"">---自我"",""<img src=\""../../test_img/26.png\"" width=150 style=\""vertical-align:middle\"">---朋友"",""<img src=\""../../test_img/22.png\"" width=150 style=\""vertical-align:middle\"">---生人""]","","",""
"","","","","","html-keyboard-response","259","698541","0.0-9.0-0.0-0.0-0.1-1.73","null","<span style='color:GreenYellow; font-size: 70px;'>正确! </span>","null","","","","","","","","","","","","","","","","","","","","","","","","","feedback_test","",""
"","","","","","psychophysics","260","700205","0.0-9.0-0.0-0.0-0.1-0.74","655","","f","","","","","","","","","","","","","key","f","16.664646464646935","640","356","f","true","../../test_img/26.png","生人","matching_task","朋友","[""<img src=\""../../test_img/15.png\"" width=150 style=\""vertical-align:middle\"">---自我"",""<img src=\""../../test_img/26.png\"" width=150 style=\""vertical-align:middle\"">---朋友"",""<img src=\""../../test_img/22.png\"" width=150 style=\""vertical-align:middle\"">---生人""]","","",""
"","","","","","html-keyboard-response","261","700711","0.0-9.0-0.0-0.0-0.1-1.74","null","<span style='color:GreenYellow; font-size: 70px;'>正确! </span>","null","","","","","","","","","","","","","","","","","","","","","","","","","feedback_test","",""
"","","","","","psychophysics","262","702438","0.0-9.0-0.0-0.0-0.1-0.75","718","","j","","","","","","","","","","","","","key","j","16.66504854368932","640","356","j","true","../../test_img/22.png","生人","matching_task","生人","[""<img src=\""../../test_img/15.png\"" width=150 style=\""vertical-align:middle\"">---自我"",""<img src=\""../../test_img/26.png\"" width=150 style=\""vertical-align:middle\"">---朋友"",""<img src=\""../../test_img/22.png\"" width=150 style=\""vertical-align:middle\"">---生人""]","","",""
"","","","","","html-keyboard-response","263","702941","0.0-9.0-0.0-0.0-0.1-1.75","null","<span style='color:GreenYellow; font-size: 70px;'>正确! </span>","null","","","","","","","","","","","","","","","","","","","","","","","","","feedback_test","",""
"","","","","","psychophysics","264","704772","0.0-9.0-0.0-0.0-0.1-0.76","819","","j","","","","","","","","","","","","","key","j","16.664220183486453","640","356","j","true","../../test_img/26.png","朋友","matching_task","朋友","[""<img src=\""../../test_img/15.png\"" width=150 style=\""vertical-align:middle\"">---自我"",""<img src=\""../../test_img/26.png\"" width=150 style=\""vertical-align:middle\"">---朋友"",""<img src=\""../../test_img/22.png\"" width=150 style=\""vertical-align:middle\"">---生人""]","","",""
"","","","","","html-keyboard-response","265","705280","0.0-9.0-0.0-0.0-0.1-1.76","null","<span style='color:GreenYellow; font-size: 70px;'>正确! </span>","null","","","","","","","","","","","","","","","","","","","","","","","","","feedback_test","",""
