"success","timeout","failed_images","failed_audio","failed_video","trial_type","trial_index","time_elapsed","internal_node_id","rt","stimulus","response","value","item_width_mm","item_height_mm","item_width_px","px2mm","view_dist_mm","item_width_deg","px2deg","scale_factor","win_width_deg","win_height_deg","view_history","response_type","key_press","avg_frame_time","center_x","center_y","correct_response","correct","Image","word","condition","shape","association","screen_id","LeftLable","RightLable"
"true","false","[]","[]","[]","preload","0","1370","0.0-0.0","","","","","","","","","","","","","","","","","","","","","","","","","","","","","",""
"","","","","","html-keyboard-response","1","25540","0.0-1.0","24168","
     <p>您好，欢迎参加本次实验。</p>
     <p>为充分保障您的权利，请确保您已经知晓并同意《参与实验同意书》以及《数据公开知情同意书》。</p>
     <p>如果您未见过上述内容，请咨询实验员。</p>
     <p>如果您选择继续实验，则表示您已经清楚两份知情同意书的内容并同意。</p>
     <p> <div style = ""color: green""><按任意键至下页></div> </p>
     "," ","","","","","","","","","","","","","","","","","","","","","","","","","","",""
"","","","","","html-keyboard-response","2","26394","0.0-2.0","854","
     <p>本实验首先需要您填写一些基本个人信息。</p>
     <p> <div style = ""color: green""><按任意键至下页></div></p>
     "," ","","","","","","","","","","","","","","","","","","","","","","","","","","",""
"","","","","","call-function","3","26395","0.0-3.0-0.0","","","","","","","","","","","","","","","","","","","","","","","","","","","","","",""
"","","","","","survey-html-form","4","255567","0.0-3.0-1.0","229170","","{""Q0"":""04""}","","","","","","","","","","","","","","","","","","","","","","","","","","",""
"","","","","","html-button-response","5","256873","0.0-3.0-2.0","1297","<p style = 'color : white'>您的性别</p>","1","","","","","","","","","","","","","","","","","","","","","","","","","","",""
"","","","","","survey-html-form","6","260863","0.0-3.0-3.0","3986","","{""Q0"":""2001""}","","","","","","","","","","","","","","","","","","","","","","","","","","",""
"","","","","","survey-html-form","7","263751","0.0-3.0-4.0","2886","","{""Q0"":""6""}","","","","","","","","","","","","","","","","","","","","","","","","","","",""
"","","","","","virtual-chinrest","8","401406","0.0-4.0","137653","","","","85.6","53.98","577.8997167811145","6.758488213202865","422.9","11.557994335622292","50","0.6125630273220589","25.44","11.88","","","","","","","","","","","","","","","",""
"true","","","","","fullscreen","9","403647","0.0-5.0","","","","","","","","","","","","","","","","","","","","","","","","","","","","","",""
"","","","","","instructions","10","447850","0.0-6.0","44200","","","","","","","","","","","","","","[{""page_index"":0,""viewing_time"":8913},{""page_index"":1,""viewing_time"":9129},{""page_index"":2,""viewing_time"":19784},{""page_index"":3,""viewing_time"":3414},{""page_index"":4,""viewing_time"":2960}]","","","","","","","","","","","","","","",""
"","","","","","psychophysics","11","450359","0.0-7.0-0.0-0.0","null","","null","","","","","","","","","","","","","key","null","16.660135135135214","640","356","arrowright","false","../../test_img/12.png","生人","prac_matching_task","朋友","[""<img src=\""../../test_img/25.png\"" width=150 style=\""vertical-align:middle\"">---自我"",""<img src=\""../../test_img/12.png\"" width=150 style=\""vertical-align:middle\"">---朋友"",""<img src=\""../../test_img/19.png\"" width=150 style=\""vertical-align:middle\"">---生人""]","","",""
"","","","","","html-keyboard-response","12","450661","0.0-7.0-0.0-1.0","null","<span class='add_' style='color:yellow; font-size: 70px;'> 太慢! </span>","null","","","","","","","","","","","","","","","","","","","","","","","","","feedback_test","",""
"","","","","","psychophysics","13","452582","0.0-7.0-0.0-0.1","920","","arrowright","","","","","","","","","","","","","key","arrowright","16.660526315789372","640","356","arrowleft","false","../../test_img/19.png","生人","prac_matching_task","生人","[""<img src=\""../../test_img/25.png\"" width=150 style=\""vertical-align:middle\"">---自我"",""<img src=\""../../test_img/12.png\"" width=150 style=\""vertical-align:middle\"">---朋友"",""<img src=\""../../test_img/19.png\"" width=150 style=\""vertical-align:middle\"">---生人""]","","",""
"","","","","","html-keyboard-response","14","452884","0.0-7.0-0.0-1.1","null","<span style='color:red; font-size: 70px;'>错误! </span>","null","","","","","","","","","","","","","","","","","","","","","","","","","feedback_test","",""
"","","","","","psychophysics","15","454601","0.0-7.0-0.0-0.2","715","","arrowleft","","","","","","","","","","","","","key","arrowleft","16.659803921568514","640","356","arrowleft","true","../../test_img/12.png","朋友","prac_matching_task","朋友","[""<img src=\""../../test_img/25.png\"" width=150 style=\""vertical-align:middle\"">---自我"",""<img src=\""../../test_img/12.png\"" width=150 style=\""vertical-align:middle\"">---朋友"",""<img src=\""../../test_img/19.png\"" width=150 style=\""vertical-align:middle\"">---生人""]","","",""
"","","","","","html-keyboard-response","16","454904","0.0-7.0-0.0-1.2","null","<span style='color:GreenYellow; font-size: 70px;'>正确! </span>","null","","","","","","","","","","","","","","","","","","","","","","","","","feedback_test","",""
"","","","","","psychophysics","17","456623","0.0-7.0-0.0-0.3","717","","arrowleft","","","","","","","","","","","","","key","arrowleft","16.659803921569083","640","356","arrowright","false","../../test_img/19.png","自我","prac_matching_task","生人","[""<img src=\""../../test_img/25.png\"" width=150 style=\""vertical-align:middle\"">---自我"",""<img src=\""../../test_img/12.png\"" width=150 style=\""vertical-align:middle\"">---朋友"",""<img src=\""../../test_img/19.png\"" width=150 style=\""vertical-align:middle\"">---生人""]","","",""
"","","","","","html-keyboard-response","18","456926","0.0-7.0-0.0-1.3","null","<span style='color:red; font-size: 70px;'>错误! </span>","null","","","","","","","","","","","","","","","","","","","","","","","","","feedback_test","",""
"","","","","","psychophysics","19","458661","0.0-7.0-0.0-0.4","733","","arrowleft","","","","","","","","","","","","","key","arrowleft","16.6592233009711","640","356","arrowleft","true","../../test_img/25.png","自我","prac_matching_task","自我","[""<img src=\""../../test_img/25.png\"" width=150 style=\""vertical-align:middle\"">---自我"",""<img src=\""../../test_img/12.png\"" width=150 style=\""vertical-align:middle\"">---朋友"",""<img src=\""../../test_img/19.png\"" width=150 style=\""vertical-align:middle\"">---生人""]","","",""
"","","","","","html-keyboard-response","20","458964","0.0-7.0-0.0-1.4","null","<span style='color:GreenYellow; font-size: 70px;'>正确! </span>","null","","","","","","","","","","","","","","","","","","","","","","","","","feedback_test","",""
"","","","","","psychophysics","21","460530","0.0-7.0-0.0-0.5","565","","arrowright","","","","","","","","","","","","","key","arrowright","16.66021505376369","640","356","arrowleft","false","../../test_img/19.png","生人","prac_matching_task","生人","[""<img src=\""../../test_img/25.png\"" width=150 style=\""vertical-align:middle\"">---自我"",""<img src=\""../../test_img/12.png\"" width=150 style=\""vertical-align:middle\"">---朋友"",""<img src=\""../../test_img/19.png\"" width=150 style=\""vertical-align:middle\"">---生人""]","","",""
"","","","","","html-keyboard-response","22","460833","0.0-7.0-0.0-1.5","null","<span style='color:red; font-size: 70px;'>错误! </span>","null","","","","","","","","","","","","","","","","","","","","","","","","","feedback_test","",""
"","","","","","psychophysics","23","462560","0.0-7.0-0.0-0.6","723","","arrowleft","","","","","","","","","","","","","key","arrowleft","16.660194174757283","640","356","arrowleft","true","../../test_img/25.png","自我","prac_matching_task","自我","[""<img src=\""../../test_img/25.png\"" width=150 style=\""vertical-align:middle\"">---自我"",""<img src=\""../../test_img/12.png\"" width=150 style=\""vertical-align:middle\"">---朋友"",""<img src=\""../../test_img/19.png\"" width=150 style=\""vertical-align:middle\"">---生人""]","","",""
"","","","","","html-keyboard-response","24","462861","0.0-7.0-0.0-1.6","null","<span style='color:GreenYellow; font-size: 70px;'>正确! </span>","null","","","","","","","","","","","","","","","","","","","","","","","","","feedback_test","",""
"","","","","","psychophysics","25","464422","0.0-7.0-0.0-0.7","559","","arrowleft","","","","","","","","","","","","","key","arrowleft","16.629489361702344","640","356","arrowleft","true","../../test_img/12.png","朋友","prac_matching_task","朋友","[""<img src=\""../../test_img/25.png\"" width=150 style=\""vertical-align:middle\"">---自我"",""<img src=\""../../test_img/12.png\"" width=150 style=\""vertical-align:middle\"">---朋友"",""<img src=\""../../test_img/19.png\"" width=150 style=\""vertical-align:middle\"">---生人""]","","",""
"","","","","","html-keyboard-response","26","464725","0.0-7.0-0.0-1.7","null","<span style='color:GreenYellow; font-size: 70px;'>正确! </span>","null","","","","","","","","","","","","","","","","","","","","","","","","","feedback_test","",""
"","","","","","psychophysics","27","466393","0.0-7.0-0.0-0.8","666","","arrowright","","","","","","","","","","","","","key","arrowright","16.658585858585976","640","356","arrowright","true","../../test_img/12.png","自我","prac_matching_task","朋友","[""<img src=\""../../test_img/25.png\"" width=150 style=\""vertical-align:middle\"">---自我"",""<img src=\""../../test_img/12.png\"" width=150 style=\""vertical-align:middle\"">---朋友"",""<img src=\""../../test_img/19.png\"" width=150 style=\""vertical-align:middle\"">---生人""]","","",""
"","","","","","html-keyboard-response","28","466697","0.0-7.0-0.0-1.8","null","<span style='color:GreenYellow; font-size: 70px;'>正确! </span>","null","","","","","","","","","","","","","","","","","","","","","","","","","feedback_test","",""
"","","","","","psychophysics","29","468351","0.0-7.0-0.0-0.9","652","","arrowleft","","","","","","","","","","","","","key","arrowleft","16.659183673469744","640","356","arrowright","false","../../test_img/19.png","朋友","prac_matching_task","生人","[""<img src=\""../../test_img/25.png\"" width=150 style=\""vertical-align:middle\"">---自我"",""<img src=\""../../test_img/12.png\"" width=150 style=\""vertical-align:middle\"">---朋友"",""<img src=\""../../test_img/19.png\"" width=150 style=\""vertical-align:middle\"">---生人""]","","",""
"","","","","","html-keyboard-response","30","468653","0.0-7.0-0.0-1.9","null","<span style='color:red; font-size: 70px;'>错误! </span>","null","","","","","","","","","","","","","","","","","","","","","","","","","feedback_test","",""
"","","","","","psychophysics","31","470756","0.0-7.0-0.0-0.10","1099","","arrowright","","","","","","","","","","","","","key","arrowright","16.659200000000187","640","356","arrowright","true","../../test_img/25.png","生人","prac_matching_task","自我","[""<img src=\""../../test_img/25.png\"" width=150 style=\""vertical-align:middle\"">---自我"",""<img src=\""../../test_img/12.png\"" width=150 style=\""vertical-align:middle\"">---朋友"",""<img src=\""../../test_img/19.png\"" width=150 style=\""vertical-align:middle\"">---生人""]","","",""
"","","","","","html-keyboard-response","32","471058","0.0-7.0-0.0-1.10","null","<span style='color:GreenYellow; font-size: 70px;'>正确! </span>","null","","","","","","","","","","","","","","","","","","","","","","","","","feedback_test","",""
"","","","","","psychophysics","33","472842","0.0-7.0-0.0-0.11","780","","arrowright","","","","","","","","","","","","","key","arrowright","16.65943396226437","640","356","arrowright","true","../../test_img/25.png","朋友","prac_matching_task","自我","[""<img src=\""../../test_img/25.png\"" width=150 style=\""vertical-align:middle\"">---自我"",""<img src=\""../../test_img/12.png\"" width=150 style=\""vertical-align:middle\"">---朋友"",""<img src=\""../../test_img/19.png\"" width=150 style=\""vertical-align:middle\"">---生人""]","","",""
"","","","","","html-keyboard-response","34","473143","0.0-7.0-0.0-1.11","null","<span style='color:GreenYellow; font-size: 70px;'>正确! </span>","null","","","","","","","","","","","","","","","","","","","","","","","","","feedback_test","",""
"","","","","","psychophysics","35","474845","0.0-7.0-0.0-0.12","699","","arrowright","","","","","","","","","","","","","key","arrowright","16.666336633663253","640","356","arrowright","true","../../test_img/25.png","朋友","prac_matching_task","自我","[""<img src=\""../../test_img/25.png\"" width=150 style=\""vertical-align:middle\"">---自我"",""<img src=\""../../test_img/12.png\"" width=150 style=\""vertical-align:middle\"">---朋友"",""<img src=\""../../test_img/19.png\"" width=150 style=\""vertical-align:middle\"">---生人""]","","",""
"","","","","","html-keyboard-response","36","475149","0.0-7.0-0.0-1.12","null","<span style='color:GreenYellow; font-size: 70px;'>正确! </span>","null","","","","","","","","","","","","","","","","","","","","","","","","","feedback_test","",""
"","","","","","psychophysics","37","476970","0.0-7.0-0.0-0.13","818","","arrowleft","","","","","","","","","","","","","key","arrowleft","16.660185185185615","640","356","arrowleft","true","../../test_img/25.png","自我","prac_matching_task","自我","[""<img src=\""../../test_img/25.png\"" width=150 style=\""vertical-align:middle\"">---自我"",""<img src=\""../../test_img/12.png\"" width=150 style=\""vertical-align:middle\"">---朋友"",""<img src=\""../../test_img/19.png\"" width=150 style=\""vertical-align:middle\"">---生人""]","","",""
"","","","","","html-keyboard-response","38","477274","0.0-7.0-0.0-1.13","null","<span style='color:GreenYellow; font-size: 70px;'>正确! </span>","null","","","","","","","","","","","","","","","","","","","","","","","","","feedback_test","",""
"","","","","","psychophysics","39","479436","0.0-7.0-0.0-0.14","1158","","arrowright","","","","","","","","","","","","","key","arrowright","16.65891472868217","640","356","arrowright","true","../../test_img/19.png","自我","prac_matching_task","生人","[""<img src=\""../../test_img/25.png\"" width=150 style=\""vertical-align:middle\"">---自我"",""<img src=\""../../test_img/12.png\"" width=150 style=\""vertical-align:middle\"">---朋友"",""<img src=\""../../test_img/19.png\"" width=150 style=\""vertical-align:middle\"">---生人""]","","",""
"","","","","","html-keyboard-response","40","479739","0.0-7.0-0.0-1.14","null","<span style='color:GreenYellow; font-size: 70px;'>正确! </span>","null","","","","","","","","","","","","","","","","","","","","","","","","","feedback_test","",""
"","","","","","psychophysics","41","481603","0.0-7.0-0.0-0.15","861","","arrowleft","","","","","","","","","","","","","key","arrowleft","16.65945945945904","640","356","arrowleft","true","../../test_img/19.png","生人","prac_matching_task","生人","[""<img src=\""../../test_img/25.png\"" width=150 style=\""vertical-align:middle\"">---自我"",""<img src=\""../../test_img/12.png\"" width=150 style=\""vertical-align:middle\"">---朋友"",""<img src=\""../../test_img/19.png\"" width=150 style=\""vertical-align:middle\"">---生人""]","","",""
"","","","","","html-keyboard-response","42","481905","0.0-7.0-0.0-1.15","null","<span style='color:GreenYellow; font-size: 70px;'>正确! </span>","null","","","","","","","","","","","","","","","","","","","","","","","","","feedback_test","",""
"","","","","","psychophysics","43","483600","0.0-7.0-0.0-0.16","693","","arrowleft","","","","","","","","","","","","","key","arrowleft","16.661386138613747","640","356","arrowleft","true","../../test_img/12.png","朋友","prac_matching_task","朋友","[""<img src=\""../../test_img/25.png\"" width=150 style=\""vertical-align:middle\"">---自我"",""<img src=\""../../test_img/12.png\"" width=150 style=\""vertical-align:middle\"">---朋友"",""<img src=\""../../test_img/19.png\"" width=150 style=\""vertical-align:middle\"">---生人""]","","",""
"","","","","","html-keyboard-response","44","483902","0.0-7.0-0.0-1.16","null","<span style='color:GreenYellow; font-size: 70px;'>正确! </span>","null","","","","","","","","","","","","","","","","","","","","","","","","","feedback_test","",""
"","","","","","psychophysics","45","485568","0.0-7.0-0.0-0.17","662","","arrowright","","","","","","","","","","","","","key","arrowright","16.65757575757611","640","356","arrowleft","false","../../test_img/19.png","生人","prac_matching_task","生人","[""<img src=\""../../test_img/25.png\"" width=150 style=\""vertical-align:middle\"">---自我"",""<img src=\""../../test_img/12.png\"" width=150 style=\""vertical-align:middle\"">---朋友"",""<img src=\""../../test_img/19.png\"" width=150 style=\""vertical-align:middle\"">---生人""]","","",""
"","","","","","html-keyboard-response","46","485871","0.0-7.0-0.0-1.17","null","<span style='color:red; font-size: 70px;'>错误! </span>","null","","","","","","","","","","","","","","","","","","","","","","","","","feedback_test","",""
"","","","","","psychophysics","47","487627","0.0-7.0-0.0-0.18","752","","arrowleft","","","","","","","","","","","","","key","arrowleft","16.660576923076476","640","356","arrowleft","true","../../test_img/12.png","朋友","prac_matching_task","朋友","[""<img src=\""../../test_img/25.png\"" width=150 style=\""vertical-align:middle\"">---自我"",""<img src=\""../../test_img/12.png\"" width=150 style=\""vertical-align:middle\"">---朋友"",""<img src=\""../../test_img/19.png\"" width=150 style=\""vertical-align:middle\"">---生人""]","","",""
"","","","","","html-keyboard-response","48","487931","0.0-7.0-0.0-1.18","null","<span style='color:GreenYellow; font-size: 70px;'>正确! </span>","null","","","","","","","","","","","","","","","","","","","","","","","","","feedback_test","",""
"","","","","","psychophysics","49","489689","0.0-7.0-0.0-0.19","754","","arrowright","","","","","","","","","","","","","key","arrowright","16.658653846153847","640","356","arrowright","true","../../test_img/12.png","自我","prac_matching_task","朋友","[""<img src=\""../../test_img/25.png\"" width=150 style=\""vertical-align:middle\"">---自我"",""<img src=\""../../test_img/12.png\"" width=150 style=\""vertical-align:middle\"">---朋友"",""<img src=\""../../test_img/19.png\"" width=150 style=\""vertical-align:middle\"">---生人""]","","",""
"","","","","","html-keyboard-response","50","489990","0.0-7.0-0.0-1.19","null","<span style='color:GreenYellow; font-size: 70px;'>正确! </span>","null","","","","","","","","","","","","","","","","","","","","","","","","","feedback_test","",""
"","","","","","psychophysics","51","491739","0.0-7.0-0.0-0.20","746","","arrowleft","","","","","","","","","","","","","key","arrowleft","16.660194174757283","640","356","arrowleft","true","../../test_img/25.png","自我","prac_matching_task","自我","[""<img src=\""../../test_img/25.png\"" width=150 style=\""vertical-align:middle\"">---自我"",""<img src=\""../../test_img/12.png\"" width=150 style=\""vertical-align:middle\"">---朋友"",""<img src=\""../../test_img/19.png\"" width=150 style=\""vertical-align:middle\"">---生人""]","","",""
"","","","","","html-keyboard-response","52","492041","0.0-7.0-0.0-1.20","null","<span style='color:GreenYellow; font-size: 70px;'>正确! </span>","null","","","","","","","","","","","","","","","","","","","","","","","","","feedback_test","",""
"","","","","","psychophysics","53","494099","0.0-7.0-0.0-0.21","1056","","arrowright","","","","","","","","","","","","","key","arrowright","16.659016393442336","640","356","arrowright","true","../../test_img/12.png","生人","prac_matching_task","朋友","[""<img src=\""../../test_img/25.png\"" width=150 style=\""vertical-align:middle\"">---自我"",""<img src=\""../../test_img/12.png\"" width=150 style=\""vertical-align:middle\"">---朋友"",""<img src=\""../../test_img/19.png\"" width=150 style=\""vertical-align:middle\"">---生人""]","","",""
"","","","","","html-keyboard-response","54","494401","0.0-7.0-0.0-1.21","null","<span style='color:GreenYellow; font-size: 70px;'>正确! </span>","null","","","","","","","","","","","","","","","","","","","","","","","","","feedback_test","",""
"","","","","","psychophysics","55","496234","0.0-7.0-0.0-0.22","831","","arrowleft","","","","","","","","","","","","","key","arrowleft","16.659633027522617","640","356","arrowright","false","../../test_img/19.png","朋友","prac_matching_task","生人","[""<img src=\""../../test_img/25.png\"" width=150 style=\""vertical-align:middle\"">---自我"",""<img src=\""../../test_img/12.png\"" width=150 style=\""vertical-align:middle\"">---朋友"",""<img src=\""../../test_img/19.png\"" width=150 style=\""vertical-align:middle\"">---生人""]","","",""
"","","","","","html-keyboard-response","56","496537","0.0-7.0-0.0-1.22","null","<span style='color:red; font-size: 70px;'>错误! </span>","null","","","","","","","","","","","","","","","","","","","","","","","","","feedback_test","",""
"","","","","","psychophysics","57","498229","0.0-7.0-0.0-0.23","690","","arrowleft","","","","","","","","","","","","","key","arrowleft","16.65841584158416","640","356","arrowright","false","../../test_img/25.png","生人","prac_matching_task","自我","[""<img src=\""../../test_img/25.png\"" width=150 style=\""vertical-align:middle\"">---自我"",""<img src=\""../../test_img/12.png\"" width=150 style=\""vertical-align:middle\"">---朋友"",""<img src=\""../../test_img/19.png\"" width=150 style=\""vertical-align:middle\"">---生人""]","","",""
"","","","","","html-keyboard-response","58","498530","0.0-7.0-0.0-1.23","null","<span style='color:red; font-size: 70px;'>错误! </span>","null","","","","","","","","","","","","","","","","","","","","","","","","","feedback_test","",""
"","","","","","html-keyboard-response","59","500164","0.0-7.0-1.0-0.0","1632","<style>.context{color:white; font-size: 35px; line-height:40px}</style>                          <div><p class='context'>您正确回答了67% 的试次。</p ><p class='context'>您的平均反应时为801毫秒。</p >"," ","","","","","","","","","","","","","","","","","","","","","","","","","","",""
"","","","","","instructions","60","514813","0.0-7.0-1.0-1.0","14649","","","","","","","","","","","","","","[{""page_index"":0,""viewing_time"":6084},{""page_index"":1,""viewing_time"":5628},{""page_index"":2,""viewing_time"":1699},{""page_index"":3,""viewing_time"":1237}]","","","","","","","","","","","","","","",""
"","","","","","psychophysics","61","516607","0.0-7.1-0.1-0.24","792","","arrowright","","","","","","","","","","","","","key","arrowright","16.660377358490567","640","356","arrowright","true","../../test_img/19.png","朋友","prac_matching_task","生人","[""<img src=\""../../test_img/25.png\"" width=150 style=\""vertical-align:middle\"">---自我"",""<img src=\""../../test_img/12.png\"" width=150 style=\""vertical-align:middle\"">---朋友"",""<img src=\""../../test_img/19.png\"" width=150 style=\""vertical-align:middle\"">---生人""]","","",""
"","","","","","html-keyboard-response","62","516909","0.0-7.1-0.1-1.24","null","<span style='color:GreenYellow; font-size: 70px;'>正确! </span>","null","","","","","","","","","","","","","","","","","","","","","","","","","feedback_test","",""
"","","","","","psychophysics","63","518760","0.0-7.1-0.1-0.25","847","","arrowright","","","","","","","","","","","","","key","arrowright","16.650963636363898","640","356","arrowleft","false","../../test_img/19.png","生人","prac_matching_task","生人","[""<img src=\""../../test_img/25.png\"" width=150 style=\""vertical-align:middle\"">---自我"",""<img src=\""../../test_img/12.png\"" width=150 style=\""vertical-align:middle\"">---朋友"",""<img src=\""../../test_img/19.png\"" width=150 style=\""vertical-align:middle\"">---生人""]","","",""
"","","","","","html-keyboard-response","64","519063","0.0-7.1-0.1-1.25","null","<span style='color:red; font-size: 70px;'>错误! </span>","null","","","","","","","","","","","","","","","","","","","","","","","","","feedback_test","",""
"","","","","","psychophysics","65","520651","0.0-7.1-0.1-0.26","586","","arrowleft","","","","","","","","","","","","","key","arrowleft","16.660638297872094","640","356","arrowleft","true","../../test_img/25.png","自我","prac_matching_task","自我","[""<img src=\""../../test_img/25.png\"" width=150 style=\""vertical-align:middle\"">---自我"",""<img src=\""../../test_img/12.png\"" width=150 style=\""vertical-align:middle\"">---朋友"",""<img src=\""../../test_img/19.png\"" width=150 style=\""vertical-align:middle\"">---生人""]","","",""
"","","","","","html-keyboard-response","66","520955","0.0-7.1-0.1-1.26","null","<span style='color:GreenYellow; font-size: 70px;'>正确! </span>","null","","","","","","","","","","","","","","","","","","","","","","","","","feedback_test","",""
"","","","","","psychophysics","67","522581","0.0-7.1-0.1-0.27","624","","arrowright","","","","","","","","","","","","","key","arrowright","16.65979381443299","640","356","arrowright","true","../../test_img/12.png","自我","prac_matching_task","朋友","[""<img src=\""../../test_img/25.png\"" width=150 style=\""vertical-align:middle\"">---自我"",""<img src=\""../../test_img/12.png\"" width=150 style=\""vertical-align:middle\"">---朋友"",""<img src=\""../../test_img/19.png\"" width=150 style=\""vertical-align:middle\"">---生人""]","","",""
"","","","","","html-keyboard-response","68","522884","0.0-7.1-0.1-1.27","null","<span style='color:GreenYellow; font-size: 70px;'>正确! </span>","null","","","","","","","","","","","","","","","","","","","","","","","","","feedback_test","",""
"","","","","","psychophysics","69","524698","0.0-7.1-0.1-0.28","811","","arrowright","","","","","","","","","","","","","key","arrowright","16.659259259258828","640","356","arrowleft","false","../../test_img/12.png","朋友","prac_matching_task","朋友","[""<img src=\""../../test_img/25.png\"" width=150 style=\""vertical-align:middle\"">---自我"",""<img src=\""../../test_img/12.png\"" width=150 style=\""vertical-align:middle\"">---朋友"",""<img src=\""../../test_img/19.png\"" width=150 style=\""vertical-align:middle\"">---生人""]","","",""
"","","","","","html-keyboard-response","70","525000","0.0-7.1-0.1-1.28","null","<span style='color:red; font-size: 70px;'>错误! </span>","null","","","","","","","","","","","","","","","","","","","","","","","","","feedback_test","",""
"","","","","","psychophysics","71","526787","0.0-7.1-0.1-0.29","783","","arrowright","","","","","","","","","","","","","key","arrowright","16.658490566037077","640","356","arrowright","true","../../test_img/12.png","生人","prac_matching_task","朋友","[""<img src=\""../../test_img/25.png\"" width=150 style=\""vertical-align:middle\"">---自我"",""<img src=\""../../test_img/12.png\"" width=150 style=\""vertical-align:middle\"">---朋友"",""<img src=\""../../test_img/19.png\"" width=150 style=\""vertical-align:middle\"">---生人""]","","",""
"","","","","","html-keyboard-response","72","527089","0.0-7.1-0.1-1.29","null","<span style='color:GreenYellow; font-size: 70px;'>正确! </span>","null","","","","","","","","","","","","","","","","","","","","","","","","","feedback_test","",""
"","","","","","psychophysics","73","528856","0.0-7.1-0.1-0.30","764","","arrowright","","","","","","","","","","","","","key","arrowright","16.658653846153847","640","356","arrowright","true","../../test_img/25.png","生人","prac_matching_task","自我","[""<img src=\""../../test_img/25.png\"" width=150 style=\""vertical-align:middle\"">---自我"",""<img src=\""../../test_img/12.png\"" width=150 style=\""vertical-align:middle\"">---朋友"",""<img src=\""../../test_img/19.png\"" width=150 style=\""vertical-align:middle\"">---生人""]","","",""
"","","","","","html-keyboard-response","74","529159","0.0-7.1-0.1-1.30","null","<span style='color:GreenYellow; font-size: 70px;'>正确! </span>","null","","","","","","","","","","","","","","","","","","","","","","","","","feedback_test","",""
"","","","","","psychophysics","75","530988","0.0-7.1-0.1-0.31","828","","arrowleft","","","","","","","","","","","","","key","arrowleft","16.659259259258828","640","356","arrowleft","true","../../test_img/19.png","生人","prac_matching_task","生人","[""<img src=\""../../test_img/25.png\"" width=150 style=\""vertical-align:middle\"">---自我"",""<img src=\""../../test_img/12.png\"" width=150 style=\""vertical-align:middle\"">---朋友"",""<img src=\""../../test_img/19.png\"" width=150 style=\""vertical-align:middle\"">---生人""]","","",""
"","","","","","html-keyboard-response","76","531291","0.0-7.1-0.1-1.31","null","<span style='color:GreenYellow; font-size: 70px;'>正确! </span>","null","","","","","","","","","","","","","","","","","","","","","","","","","feedback_test","",""
"","","","","","psychophysics","77","533076","0.0-7.1-0.1-0.32","783","","arrowright","","","","","","","","","","","","","key","arrowright","16.65943396226437","640","356","arrowright","true","../../test_img/19.png","自我","prac_matching_task","生人","[""<img src=\""../../test_img/25.png\"" width=150 style=\""vertical-align:middle\"">---自我"",""<img src=\""../../test_img/12.png\"" width=150 style=\""vertical-align:middle\"">---朋友"",""<img src=\""../../test_img/19.png\"" width=150 style=\""vertical-align:middle\"">---生人""]","","",""
"","","","","","html-keyboard-response","78","533379","0.0-7.1-0.1-1.32","null","<span style='color:GreenYellow; font-size: 70px;'>正确! </span>","null","","","","","","","","","","","","","","","","","","","","","","","","","feedback_test","",""
"","","","","","psychophysics","79","535141","0.0-7.1-0.1-0.33","760","","arrowright","","","","","","","","","","","","","key","arrowright","16.65607547169806","640","356","arrowright","true","../../test_img/25.png","朋友","prac_matching_task","自我","[""<img src=\""../../test_img/25.png\"" width=150 style=\""vertical-align:middle\"">---自我"",""<img src=\""../../test_img/12.png\"" width=150 style=\""vertical-align:middle\"">---朋友"",""<img src=\""../../test_img/19.png\"" width=150 style=\""vertical-align:middle\"">---生人""]","","",""
"","","","","","html-keyboard-response","80","535444","0.0-7.1-0.1-1.33","null","<span style='color:GreenYellow; font-size: 70px;'>正确! </span>","null","","","","","","","","","","","","","","","","","","","","","","","","","feedback_test","",""
"","","","","","psychophysics","81","537275","0.0-7.1-0.1-0.34","828","","arrowleft","","","","","","","","","","","","","key","arrowleft","16.65963302752315","640","356","arrowleft","true","../../test_img/12.png","朋友","prac_matching_task","朋友","[""<img src=\""../../test_img/25.png\"" width=150 style=\""vertical-align:middle\"">---自我"",""<img src=\""../../test_img/12.png\"" width=150 style=\""vertical-align:middle\"">---朋友"",""<img src=\""../../test_img/19.png\"" width=150 style=\""vertical-align:middle\"">---生人""]","","",""
"","","","","","html-keyboard-response","82","537578","0.0-7.1-0.1-1.34","null","<span style='color:GreenYellow; font-size: 70px;'>正确! </span>","null","","","","","","","","","","","","","","","","","","","","","","","","","feedback_test","",""
"","","","","","psychophysics","83","539208","0.0-7.1-0.1-0.35","627","","arrowleft","","","","","","","","","","","","","key","arrowleft","16.65979381443299","640","356","arrowleft","true","../../test_img/25.png","自我","prac_matching_task","自我","[""<img src=\""../../test_img/25.png\"" width=150 style=\""vertical-align:middle\"">---自我"",""<img src=\""../../test_img/12.png\"" width=150 style=\""vertical-align:middle\"">---朋友"",""<img src=\""../../test_img/19.png\"" width=150 style=\""vertical-align:middle\"">---生人""]","","",""
"","","","","","html-keyboard-response","84","539509","0.0-7.1-0.1-1.35","null","<span style='color:GreenYellow; font-size: 70px;'>正确! </span>","null","","","","","","","","","","","","","","","","","","","","","","","","","feedback_test","",""
"","","","","","psychophysics","85","541235","0.0-7.1-0.1-0.36","721","","arrowright","","","","","","","","","","","","","key","arrowright","16.659803921567942","640","356","arrowright","true","../../test_img/12.png","自我","prac_matching_task","朋友","[""<img src=\""../../test_img/25.png\"" width=150 style=\""vertical-align:middle\"">---自我"",""<img src=\""../../test_img/12.png\"" width=150 style=\""vertical-align:middle\"">---朋友"",""<img src=\""../../test_img/19.png\"" width=150 style=\""vertical-align:middle\"">---生人""]","","",""
"","","","","","html-keyboard-response","86","541538","0.0-7.1-0.1-1.36","null","<span style='color:GreenYellow; font-size: 70px;'>正确! </span>","null","","","","","","","","","","","","","","","","","","","","","","","","","feedback_test","",""
"","","","","","psychophysics","87","543187","0.0-7.1-0.1-0.37","646","","arrowleft","","","","","","","","","","","","","key","arrowleft","16.656122448980067","640","356","arrowleft","true","../../test_img/25.png","自我","prac_matching_task","自我","[""<img src=\""../../test_img/25.png\"" width=150 style=\""vertical-align:middle\"">---自我"",""<img src=\""../../test_img/12.png\"" width=150 style=\""vertical-align:middle\"">---朋友"",""<img src=\""../../test_img/19.png\"" width=150 style=\""vertical-align:middle\"">---生人""]","","",""
"","","","","","html-keyboard-response","88","543489","0.0-7.1-0.1-1.37","null","<span style='color:GreenYellow; font-size: 70px;'>正确! </span>","null","","","","","","","","","","","","","","","","","","","","","","","","","feedback_test","",""
"","","","","","psychophysics","89","545079","0.0-7.1-0.1-0.38","587","","arrowright","","","","","","","","","","","","","key","arrowright","16.65851063829812","640","356","arrowright","true","../../test_img/25.png","朋友","prac_matching_task","自我","[""<img src=\""../../test_img/25.png\"" width=150 style=\""vertical-align:middle\"">---自我"",""<img src=\""../../test_img/12.png\"" width=150 style=\""vertical-align:middle\"">---朋友"",""<img src=\""../../test_img/19.png\"" width=150 style=\""vertical-align:middle\"">---生人""]","","",""
"","","","","","html-keyboard-response","90","545380","0.0-7.1-0.1-1.38","null","<span style='color:GreenYellow; font-size: 70px;'>正确! </span>","null","","","","","","","","","","","","","","","","","","","","","","","","","feedback_test","",""
"","","","","","psychophysics","91","547222","0.0-7.1-0.1-0.39","839","","arrowleft","","","","","","","","","","","","","key","arrowleft","16.657072727273174","640","356","arrowright","false","../../test_img/19.png","朋友","prac_matching_task","生人","[""<img src=\""../../test_img/25.png\"" width=150 style=\""vertical-align:middle\"">---自我"",""<img src=\""../../test_img/12.png\"" width=150 style=\""vertical-align:middle\"">---朋友"",""<img src=\""../../test_img/19.png\"" width=150 style=\""vertical-align:middle\"">---生人""]","","",""
"","","","","","html-keyboard-response","92","547525","0.0-7.1-0.1-1.39","null","<span style='color:red; font-size: 70px;'>错误! </span>","null","","","","","","","","","","","","","","","","","","","","","","","","","feedback_test","",""
"","","","","","psychophysics","93","549132","0.0-7.1-0.1-0.40","605","","arrowleft","","","","","","","","","","","","","key","arrowleft","16.658947368420808","640","356","arrowleft","true","../../test_img/12.png","朋友","prac_matching_task","朋友","[""<img src=\""../../test_img/25.png\"" width=150 style=\""vertical-align:middle\"">---自我"",""<img src=\""../../test_img/12.png\"" width=150 style=\""vertical-align:middle\"">---朋友"",""<img src=\""../../test_img/19.png\"" width=150 style=\""vertical-align:middle\"">---生人""]","","",""
"","","","","","html-keyboard-response","94","549433","0.0-7.1-0.1-1.40","null","<span style='color:GreenYellow; font-size: 70px;'>正确! </span>","null","","","","","","","","","","","","","","","","","","","","","","","","","feedback_test","",""
"","","","","","psychophysics","95","551248","0.0-7.1-0.1-0.41","810","","arrowright","","","","","","","","","","","","","key","arrowright","16.6588785046729","640","356","arrowright","true","../../test_img/19.png","自我","prac_matching_task","生人","[""<img src=\""../../test_img/25.png\"" width=150 style=\""vertical-align:middle\"">---自我"",""<img src=\""../../test_img/12.png\"" width=150 style=\""vertical-align:middle\"">---朋友"",""<img src=\""../../test_img/19.png\"" width=150 style=\""vertical-align:middle\"">---生人""]","","",""
"","","","","","html-keyboard-response","96","551551","0.0-7.1-0.1-1.41","null","<span style='color:GreenYellow; font-size: 70px;'>正确! </span>","null","","","","","","","","","","","","","","","","","","","","","","","","","feedback_test","",""
"","","","","","psychophysics","97","553287","0.0-7.1-0.1-0.42","734","","arrowleft","","","","","","","","","","","","","key","arrowleft","16.660194174757283","640","356","arrowright","false","../../test_img/25.png","生人","prac_matching_task","自我","[""<img src=\""../../test_img/25.png\"" width=150 style=\""vertical-align:middle\"">---自我"",""<img src=\""../../test_img/12.png\"" width=150 style=\""vertical-align:middle\"">---朋友"",""<img src=\""../../test_img/19.png\"" width=150 style=\""vertical-align:middle\"">---生人""]","","",""
"","","","","","html-keyboard-response","98","553589","0.0-7.1-0.1-1.42","null","<span style='color:red; font-size: 70px;'>错误! </span>","null","","","","","","","","","","","","","","","","","","","","","","","","","feedback_test","",""
"","","","","","psychophysics","99","555519","0.0-7.1-0.1-0.43","928","","arrowleft","","","","","","","","","","","","","key","arrowleft","16.65999999999919","640","356","arrowleft","true","../../test_img/19.png","生人","prac_matching_task","生人","[""<img src=\""../../test_img/25.png\"" width=150 style=\""vertical-align:middle\"">---自我"",""<img src=\""../../test_img/12.png\"" width=150 style=\""vertical-align:middle\"">---朋友"",""<img src=\""../../test_img/19.png\"" width=150 style=\""vertical-align:middle\"">---生人""]","","",""
"","","","","","html-keyboard-response","100","555822","0.0-7.1-0.1-1.43","null","<span style='color:GreenYellow; font-size: 70px;'>正确! </span>","null","","","","","","","","","","","","","","","","","","","","","","","","","feedback_test","",""
"","","","","","psychophysics","101","557540","0.0-7.1-0.1-0.44","714","","arrowright","","","","","","","","","","","","","key","arrowright","16.659803921569083","640","356","arrowright","true","../../test_img/12.png","生人","prac_matching_task","朋友","[""<img src=\""../../test_img/25.png\"" width=150 style=\""vertical-align:middle\"">---自我"",""<img src=\""../../test_img/12.png\"" width=150 style=\""vertical-align:middle\"">---朋友"",""<img src=\""../../test_img/19.png\"" width=150 style=\""vertical-align:middle\"">---生人""]","","",""
"","","","","","html-keyboard-response","102","557843","0.0-7.1-0.1-1.44","null","<span style='color:GreenYellow; font-size: 70px;'>正确! </span>","null","","","","","","","","","","","","","","","","","","","","","","","","","feedback_test","",""
"","","","","","psychophysics","103","559569","0.0-7.1-0.1-0.45","724","","arrowleft","","","","","","","","","","","","","key","arrowleft","16.659803921569083","640","356","arrowleft","true","../../test_img/12.png","朋友","prac_matching_task","朋友","[""<img src=\""../../test_img/25.png\"" width=150 style=\""vertical-align:middle\"">---自我"",""<img src=\""../../test_img/12.png\"" width=150 style=\""vertical-align:middle\"">---朋友"",""<img src=\""../../test_img/19.png\"" width=150 style=\""vertical-align:middle\"">---生人""]","","",""
"","","","","","html-keyboard-response","104","559872","0.0-7.1-0.1-1.45","null","<span style='color:GreenYellow; font-size: 70px;'>正确! </span>","null","","","","","","","","","","","","","","","","","","","","","","","","","feedback_test","",""
"","","","","","psychophysics","105","561655","0.0-7.1-0.1-0.46","781","","arrowleft","","","","","","","","","","","","","key","arrowleft","16.65943396226437","640","356","arrowleft","true","../../test_img/19.png","生人","prac_matching_task","生人","[""<img src=\""../../test_img/25.png\"" width=150 style=\""vertical-align:middle\"">---自我"",""<img src=\""../../test_img/12.png\"" width=150 style=\""vertical-align:middle\"">---朋友"",""<img src=\""../../test_img/19.png\"" width=150 style=\""vertical-align:middle\"">---生人""]","","",""
"","","","","","html-keyboard-response","106","561957","0.0-7.1-0.1-1.46","null","<span style='color:GreenYellow; font-size: 70px;'>正确! </span>","null","","","","","","","","","","","","","","","","","","","","","","","","","feedback_test","",""
"","","","","","psychophysics","107","563624","0.0-7.1-0.1-0.47","664","","arrowleft","","","","","","","","","","","","","key","arrowleft","16.657010101010044","640","356","arrowleft","true","../../test_img/25.png","自我","prac_matching_task","自我","[""<img src=\""../../test_img/25.png\"" width=150 style=\""vertical-align:middle\"">---自我"",""<img src=\""../../test_img/12.png\"" width=150 style=\""vertical-align:middle\"">---朋友"",""<img src=\""../../test_img/19.png\"" width=150 style=\""vertical-align:middle\"">---生人""]","","",""
"","","","","","html-keyboard-response","108","563927","0.0-7.1-0.1-1.47","null","<span style='color:GreenYellow; font-size: 70px;'>正确! </span>","null","","","","","","","","","","","","","","","","","","","","","","","","","feedback_test","",""
"","","","","","html-keyboard-response","109","571380","0.0-8.0","7451","<style>.context{color:white; font-size: 35px; line-height:40px}</style>                          <div><p class='context'>您正确回答了83% 的试次。</p ><p class='context'>您的平均反应时为728毫秒。</p ><p class='context'>恭喜您完成练习。按任意键进入知觉匹配任务正式实验。</p ><p style = 'color:lightgreen; font-size: 35px;' >正式实验与练习要求相同，请您尽可能又快又准地进行按键反应</p><p class='footer' style='font-size: 22px; line-height:40px;'>请将您右手的<span style='color: lightgreen;'>食指与无名指</span>放在电脑键盘的相应键位上进行按键。</p >"," ","","","","","","","","","","","","","","","","","","","","","","","","","","",""
"","","","","","psychophysics","110","573196","0.0-9.0-0.0-0.0-0.0-0.0","815","","arrowright","","","","","","","","","","","","","key","arrowright","16.660185185185615","640","356","arrowright","true","../../test_img/25.png","生人","matching_task","自我","[""<img src=\""../../test_img/25.png\"" width=150 style=\""vertical-align:middle\"">---自我"",""<img src=\""../../test_img/12.png\"" width=150 style=\""vertical-align:middle\"">---朋友"",""<img src=\""../../test_img/19.png\"" width=150 style=\""vertical-align:middle\"">---生人""]","","",""
"","","","","","html-keyboard-response","111","573699","0.0-9.0-0.0-0.0-0.0-1.0","null","<span style='color:GreenYellow; font-size: 70px;'>正确! </span>","null","","","","","","","","","","","","","","","","","","","","","","","","","feedback_test","",""
"","","","","","psychophysics","112","575486","0.0-9.0-0.0-0.0-0.0-0.1","783","","arrowright","","","","","","","","","","","","","key","arrowright","16.652018867923992","640","356","arrowright","true","../../test_img/12.png","生人","matching_task","朋友","[""<img src=\""../../test_img/25.png\"" width=150 style=\""vertical-align:middle\"">---自我"",""<img src=\""../../test_img/12.png\"" width=150 style=\""vertical-align:middle\"">---朋友"",""<img src=\""../../test_img/19.png\"" width=150 style=\""vertical-align:middle\"">---生人""]","","",""
"","","","","","html-keyboard-response","113","575989","0.0-9.0-0.0-0.0-0.0-1.1","null","<span style='color:GreenYellow; font-size: 70px;'>正确! </span>","null","","","","","","","","","","","","","","","","","","","","","","","","","feedback_test","",""
"","","","","","psychophysics","114","577546","0.0-9.0-0.0-0.0-0.0-0.2","555","","arrowleft","","","","","","","","","","","","","key","arrowleft","16.660869565217897","640","356","arrowright","false","../../test_img/25.png","朋友","matching_task","自我","[""<img src=\""../../test_img/25.png\"" width=150 style=\""vertical-align:middle\"">---自我"",""<img src=\""../../test_img/12.png\"" width=150 style=\""vertical-align:middle\"">---朋友"",""<img src=\""../../test_img/19.png\"" width=150 style=\""vertical-align:middle\"">---生人""]","","",""
"","","","","","html-keyboard-response","115","578049","0.0-9.0-0.0-0.0-0.0-1.2","null","<span style='color:red; font-size: 70px;'>错误! </span>","null","","","","","","","","","","","","","","","","","","","","","","","","","feedback_test","",""
"","","","","","psychophysics","116","579656","0.0-9.0-0.0-0.0-0.0-0.3","604","","arrowleft","","","","","","","","","","","","","key","arrowleft","16.656494845360154","640","356","arrowleft","true","../../test_img/25.png","自我","matching_task","自我","[""<img src=\""../../test_img/25.png\"" width=150 style=\""vertical-align:middle\"">---自我"",""<img src=\""../../test_img/12.png\"" width=150 style=\""vertical-align:middle\"">---朋友"",""<img src=\""../../test_img/19.png\"" width=150 style=\""vertical-align:middle\"">---生人""]","","",""
"","","","","","html-keyboard-response","117","580159","0.0-9.0-0.0-0.0-0.0-1.3","null","<span style='color:GreenYellow; font-size: 70px;'>正确! </span>","null","","","","","","","","","","","","","","","","","","","","","","","","","feedback_test","",""
"","","","","","psychophysics","118","581806","0.0-9.0-0.0-0.0-0.0-0.4","643","","arrowleft","","","","","","","","","","","","","key","arrowleft","16.660204081633367","640","356","arrowleft","true","../../test_img/25.png","自我","matching_task","自我","[""<img src=\""../../test_img/25.png\"" width=150 style=\""vertical-align:middle\"">---自我"",""<img src=\""../../test_img/12.png\"" width=150 style=\""vertical-align:middle\"">---朋友"",""<img src=\""../../test_img/19.png\"" width=150 style=\""vertical-align:middle\"">---生人""]","","",""
"","","","","","html-keyboard-response","119","582309","0.0-9.0-0.0-0.0-0.0-1.4","null","<span style='color:GreenYellow; font-size: 70px;'>正确! </span>","null","","","","","","","","","","","","","","","","","","","","","","","","","feedback_test","",""
"","","","","","psychophysics","120","583983","0.0-9.0-0.0-0.0-0.0-0.5","672","","arrowleft","","","","","","","","","","","","","key","arrowleft","16.65959595959643","640","356","arrowleft","true","../../test_img/12.png","朋友","matching_task","朋友","[""<img src=\""../../test_img/25.png\"" width=150 style=\""vertical-align:middle\"">---自我"",""<img src=\""../../test_img/12.png\"" width=150 style=\""vertical-align:middle\"">---朋友"",""<img src=\""../../test_img/19.png\"" width=150 style=\""vertical-align:middle\"">---生人""]","","",""
"","","","","","html-keyboard-response","121","584487","0.0-9.0-0.0-0.0-0.0-1.5","null","<span style='color:GreenYellow; font-size: 70px;'>正确! </span>","null","","","","","","","","","","","","","","","","","","","","","","","","","feedback_test","",""
"","","","","","psychophysics","122","586144","0.0-9.0-0.0-0.0-0.0-0.6","654","","arrowright","","","","","","","","","","","","","key","arrowright","16.660204081632177","640","356","arrowright","true","../../test_img/12.png","自我","matching_task","朋友","[""<img src=\""../../test_img/25.png\"" width=150 style=\""vertical-align:middle\"">---自我"",""<img src=\""../../test_img/12.png\"" width=150 style=\""vertical-align:middle\"">---朋友"",""<img src=\""../../test_img/19.png\"" width=150 style=\""vertical-align:middle\"">---生人""]","","",""
"","","","","","html-keyboard-response","123","586647","0.0-9.0-0.0-0.0-0.0-1.6","null","<span style='color:GreenYellow; font-size: 70px;'>正确! </span>","null","","","","","","","","","","","","","","","","","","","","","","","","","feedback_test","",""
"","","","","","psychophysics","124","588394","0.0-9.0-0.0-0.0-0.0-0.7","746","","arrowright","","","","","","","","","","","","","key","arrowright","16.658252427183786","640","356","arrowright","true","../../test_img/19.png","自我","matching_task","生人","[""<img src=\""../../test_img/25.png\"" width=150 style=\""vertical-align:middle\"">---自我"",""<img src=\""../../test_img/12.png\"" width=150 style=\""vertical-align:middle\"">---朋友"",""<img src=\""../../test_img/19.png\"" width=150 style=\""vertical-align:middle\"">---生人""]","","",""
"","","","","","html-keyboard-response","125","588896","0.0-9.0-0.0-0.0-0.0-1.7","null","<span style='color:GreenYellow; font-size: 70px;'>正确! </span>","null","","","","","","","","","","","","","","","","","","","","","","","","","feedback_test","",""
"","","","","","psychophysics","126","590915","0.0-9.0-0.0-0.0-0.0-0.8","1016","","arrowright","","","","","","","","","","","","","key","arrowright","16.659166666666472","640","356","arrowright","true","../../test_img/19.png","朋友","matching_task","生人","[""<img src=\""../../test_img/25.png\"" width=150 style=\""vertical-align:middle\"">---自我"",""<img src=\""../../test_img/12.png\"" width=150 style=\""vertical-align:middle\"">---朋友"",""<img src=\""../../test_img/19.png\"" width=150 style=\""vertical-align:middle\"">---生人""]","","",""
"","","","","","html-keyboard-response","127","591417","0.0-9.0-0.0-0.0-0.0-1.8","null","<span style='color:GreenYellow; font-size: 70px;'>正确! </span>","null","","","","","","","","","","","","","","","","","","","","","","","","","feedback_test","",""
"","","","","","psychophysics","128","593222","0.0-9.0-0.0-0.0-0.0-0.9","803","","arrowleft","","","","","","","","","","","","","key","arrowleft","16.65981308411193","640","356","arrowleft","true","../../test_img/19.png","生人","matching_task","生人","[""<img src=\""../../test_img/25.png\"" width=150 style=\""vertical-align:middle\"">---自我"",""<img src=\""../../test_img/12.png\"" width=150 style=\""vertical-align:middle\"">---朋友"",""<img src=\""../../test_img/19.png\"" width=150 style=\""vertical-align:middle\"">---生人""]","","",""
"","","","","","html-keyboard-response","129","593725","0.0-9.0-0.0-0.0-0.0-1.9","null","<span style='color:GreenYellow; font-size: 70px;'>正确! </span>","null","","","","","","","","","","","","","","","","","","","","","","","","","feedback_test","",""
"","","","","","psychophysics","130","595415","0.0-9.0-0.0-0.0-0.0-0.10","687","","arrowright","","","","","","","","","","","","","key","arrowright","16.655643564356158","640","356","arrowleft","false","../../test_img/19.png","生人","matching_task","生人","[""<img src=\""../../test_img/25.png\"" width=150 style=\""vertical-align:middle\"">---自我"",""<img src=\""../../test_img/12.png\"" width=150 style=\""vertical-align:middle\"">---朋友"",""<img src=\""../../test_img/19.png\"" width=150 style=\""vertical-align:middle\"">---生人""]","","",""
"","","","","","html-keyboard-response","131","595916","0.0-9.0-0.0-0.0-0.0-1.10","null","<span style='color:red; font-size: 70px;'>错误! </span>","null","","","","","","","","","","","","","","","","","","","","","","","","","feedback_test","",""
"","","","","","psychophysics","132","597616","0.0-9.0-0.0-0.0-0.0-0.11","697","","arrowleft","","","","","","","","","","","","","key","arrowleft","16.65841584158416","640","356","arrowleft","true","../../test_img/12.png","朋友","matching_task","朋友","[""<img src=\""../../test_img/25.png\"" width=150 style=\""vertical-align:middle\"">---自我"",""<img src=\""../../test_img/12.png\"" width=150 style=\""vertical-align:middle\"">---朋友"",""<img src=\""../../test_img/19.png\"" width=150 style=\""vertical-align:middle\"">---生人""]","","",""
"","","","","","html-keyboard-response","133","598118","0.0-9.0-0.0-0.0-0.0-1.11","null","<span style='color:GreenYellow; font-size: 70px;'>正确! </span>","null","","","","","","","","","","","","","","","","","","","","","","","","","feedback_test","",""
"","","","","","psychophysics","134","599770","0.0-9.0-0.0-0.0-0.0-0.12","648","","arrowright","","","","","","","","","","","","","key","arrowright","16.65918367346915","640","356","arrowright","true","../../test_img/12.png","自我","matching_task","朋友","[""<img src=\""../../test_img/25.png\"" width=150 style=\""vertical-align:middle\"">---自我"",""<img src=\""../../test_img/12.png\"" width=150 style=\""vertical-align:middle\"">---朋友"",""<img src=\""../../test_img/19.png\"" width=150 style=\""vertical-align:middle\"">---生人""]","","",""
"","","","","","html-keyboard-response","135","600271","0.0-9.0-0.0-0.0-0.0-1.12","null","<span style='color:GreenYellow; font-size: 70px;'>正确! </span>","null","","","","","","","","","","","","","","","","","","","","","","","","","feedback_test","",""
"","","","","","psychophysics","136","602169","0.0-9.0-0.0-0.0-0.0-0.13","894","","arrowright","","","","","","","","","","","","","key","arrowright","16.660176991150237","640","356","arrowright","true","../../test_img/19.png","朋友","matching_task","生人","[""<img src=\""../../test_img/25.png\"" width=150 style=\""vertical-align:middle\"">---自我"",""<img src=\""../../test_img/12.png\"" width=150 style=\""vertical-align:middle\"">---朋友"",""<img src=\""../../test_img/19.png\"" width=150 style=\""vertical-align:middle\"">---生人""]","","",""
"","","","","","html-keyboard-response","137","602671","0.0-9.0-0.0-0.0-0.0-1.13","null","<span style='color:GreenYellow; font-size: 70px;'>正确! </span>","null","","","","","","","","","","","","","","","","","","","","","","","","","feedback_test","",""
"","","","","","psychophysics","138","604383","0.0-9.0-0.0-0.0-0.0-0.14","708","","arrowright","","","","","","","","","","","","","key","arrowright","16.656019607843035","640","356","arrowright","true","../../test_img/19.png","自我","matching_task","生人","[""<img src=\""../../test_img/25.png\"" width=150 style=\""vertical-align:middle\"">---自我"",""<img src=\""../../test_img/12.png\"" width=150 style=\""vertical-align:middle\"">---朋友"",""<img src=\""../../test_img/19.png\"" width=150 style=\""vertical-align:middle\"">---生人""]","","",""
"","","","","","html-keyboard-response","139","604885","0.0-9.0-0.0-0.0-0.0-1.14","null","<span style='color:GreenYellow; font-size: 70px;'>正确! </span>","null","","","","","","","","","","","","","","","","","","","","","","","","","feedback_test","",""
"","","","","","psychophysics","140","606603","0.0-9.0-0.0-0.0-0.0-0.15","716","","arrowright","","","","","","","","","","","","","key","arrowright","16.659803921569083","640","356","arrowright","true","../../test_img/12.png","生人","matching_task","朋友","[""<img src=\""../../test_img/25.png\"" width=150 style=\""vertical-align:middle\"">---自我"",""<img src=\""../../test_img/12.png\"" width=150 style=\""vertical-align:middle\"">---朋友"",""<img src=\""../../test_img/19.png\"" width=150 style=\""vertical-align:middle\"">---生人""]","","",""
"","","","","","html-keyboard-response","141","607105","0.0-9.0-0.0-0.0-0.0-1.15","null","<span style='color:GreenYellow; font-size: 70px;'>正确! </span>","null","","","","","","","","","","","","","","","","","","","","","","","","","feedback_test","",""
"","","","","","psychophysics","142","608750","0.0-9.0-0.0-0.0-0.0-0.16","641","","arrowleft","","","","","","","","","","","","","key","arrowleft","16.65979381443299","640","356","arrowleft","true","../../test_img/25.png","自我","matching_task","自我","[""<img src=\""../../test_img/25.png\"" width=150 style=\""vertical-align:middle\"">---自我"",""<img src=\""../../test_img/12.png\"" width=150 style=\""vertical-align:middle\"">---朋友"",""<img src=\""../../test_img/19.png\"" width=150 style=\""vertical-align:middle\"">---生人""]","","",""
"","","","","","html-keyboard-response","143","609253","0.0-9.0-0.0-0.0-0.0-1.16","null","<span style='color:GreenYellow; font-size: 70px;'>正确! </span>","null","","","","","","","","","","","","","","","","","","","","","","","","","feedback_test","",""
"","","","","","psychophysics","144","610852","0.0-9.0-0.0-0.0-0.0-0.17","597","","arrowright","","","","","","","","","","","","","key","arrowright","16.836559139785447","640","356","arrowright","true","../../test_img/25.png","朋友","matching_task","自我","[""<img src=\""../../test_img/25.png\"" width=150 style=\""vertical-align:middle\"">---自我"",""<img src=\""../../test_img/12.png\"" width=150 style=\""vertical-align:middle\"">---朋友"",""<img src=\""../../test_img/19.png\"" width=150 style=\""vertical-align:middle\"">---生人""]","","",""
"","","","","","html-keyboard-response","145","611353","0.0-9.0-0.0-0.0-0.0-1.17","null","<span style='color:GreenYellow; font-size: 70px;'>正确! </span>","null","","","","","","","","","","","","","","","","","","","","","","","","","feedback_test","",""
"","","","","","psychophysics","146","613191","0.0-9.0-0.0-0.0-0.0-0.18","835","","arrowleft","","","","","","","","","","","","","key","arrowleft","16.6587155963307","640","356","arrowleft","true","../../test_img/19.png","生人","matching_task","生人","[""<img src=\""../../test_img/25.png\"" width=150 style=\""vertical-align:middle\"">---自我"",""<img src=\""../../test_img/12.png\"" width=150 style=\""vertical-align:middle\"">---朋友"",""<img src=\""../../test_img/19.png\"" width=150 style=\""vertical-align:middle\"">---生人""]","","",""
"","","","","","html-keyboard-response","147","613693","0.0-9.0-0.0-0.0-0.0-1.18","null","<span style='color:GreenYellow; font-size: 70px;'>正确! </span>","null","","","","","","","","","","","","","","","","","","","","","","","","","feedback_test","",""
"","","","","","psychophysics","148","615417","0.0-9.0-0.0-0.0-0.0-0.19","722","","arrowleft","","","","","","","","","","","","","key","arrowleft","16.659803921567942","640","356","arrowleft","true","../../test_img/25.png","自我","matching_task","自我","[""<img src=\""../../test_img/25.png\"" width=150 style=\""vertical-align:middle\"">---自我"",""<img src=\""../../test_img/12.png\"" width=150 style=\""vertical-align:middle\"">---朋友"",""<img src=\""../../test_img/19.png\"" width=150 style=\""vertical-align:middle\"">---生人""]","","",""
"","","","","","html-keyboard-response","149","615920","0.0-9.0-0.0-0.0-0.0-1.19","null","<span style='color:GreenYellow; font-size: 70px;'>正确! </span>","null","","","","","","","","","","","","","","","","","","","","","","","","","feedback_test","",""
"","","","","","psychophysics","150","617766","0.0-9.0-0.0-0.0-0.0-0.20","842","","arrowleft","","","","","","","","","","","","","key","arrowleft","16.65963302752315","640","356","arrowleft","true","../../test_img/19.png","生人","matching_task","生人","[""<img src=\""../../test_img/25.png\"" width=150 style=\""vertical-align:middle\"">---自我"",""<img src=\""../../test_img/12.png\"" width=150 style=\""vertical-align:middle\"">---朋友"",""<img src=\""../../test_img/19.png\"" width=150 style=\""vertical-align:middle\"">---生人""]","","",""
"","","","","","html-keyboard-response","151","618268","0.0-9.0-0.0-0.0-0.0-1.20","null","<span style='color:GreenYellow; font-size: 70px;'>正确! </span>","null","","","","","","","","","","","","","","","","","","","","","","","","","feedback_test","",""
"","","","","","psychophysics","152","619926","0.0-9.0-0.0-0.0-0.0-0.21","654","","arrowleft","","","","","","","","","","","","","key","arrowleft","16.661224489796393","640","356","arrowleft","true","../../test_img/12.png","朋友","matching_task","朋友","[""<img src=\""../../test_img/25.png\"" width=150 style=\""vertical-align:middle\"">---自我"",""<img src=\""../../test_img/12.png\"" width=150 style=\""vertical-align:middle\"">---朋友"",""<img src=\""../../test_img/19.png\"" width=150 style=\""vertical-align:middle\"">---生人""]","","",""
"","","","","","html-keyboard-response","153","620429","0.0-9.0-0.0-0.0-0.0-1.21","null","<span style='color:GreenYellow; font-size: 70px;'>正确! </span>","null","","","","","","","","","","","","","","","","","","","","","","","","","feedback_test","",""
"","","","","","psychophysics","154","622235","0.0-9.0-0.0-0.0-0.0-0.22","802","","arrowright","","","","","","","","","","","","","key","arrowright","16.655685185185305","640","356","arrowright","true","../../test_img/25.png","生人","matching_task","自我","[""<img src=\""../../test_img/25.png\"" width=150 style=\""vertical-align:middle\"">---自我"",""<img src=\""../../test_img/12.png\"" width=150 style=\""vertical-align:middle\"">---朋友"",""<img src=\""../../test_img/19.png\"" width=150 style=\""vertical-align:middle\"">---生人""]","","",""
"","","","","","html-keyboard-response","155","622736","0.0-9.0-0.0-0.0-0.0-1.22","null","<span style='color:GreenYellow; font-size: 70px;'>正确! </span>","null","","","","","","","","","","","","","","","","","","","","","","","","","feedback_test","",""
"","","","","","psychophysics","156","624346","0.0-9.0-0.0-0.0-0.0-0.23","609","","arrowleft","","","","","","","","","","","","","key","arrowleft","16.660000000000736","640","356","arrowleft","true","../../test_img/12.png","朋友","matching_task","朋友","[""<img src=\""../../test_img/25.png\"" width=150 style=\""vertical-align:middle\"">---自我"",""<img src=\""../../test_img/12.png\"" width=150 style=\""vertical-align:middle\"">---朋友"",""<img src=\""../../test_img/19.png\"" width=150 style=\""vertical-align:middle\"">---生人""]","","",""
"","","","","","html-keyboard-response","157","624847","0.0-9.0-0.0-0.0-0.0-1.23","null","<span style='color:GreenYellow; font-size: 70px;'>正确! </span>","null","","","","","","","","","","","","","","","","","","","","","","","","","feedback_test","",""
"","","","","","psychophysics","158","626496","0.0-9.0-0.0-0.0-0.0-0.24","646","","arrowright","","","","","","","","","","","","","key","arrowright","16.660824742267803","640","356","arrowright","true","../../test_img/19.png","朋友","matching_task","生人","[""<img src=\""../../test_img/25.png\"" width=150 style=\""vertical-align:middle\"">---自我"",""<img src=\""../../test_img/12.png\"" width=150 style=\""vertical-align:middle\"">---朋友"",""<img src=\""../../test_img/19.png\"" width=150 style=\""vertical-align:middle\"">---生人""]","","",""
"","","","","","html-keyboard-response","159","627000","0.0-9.0-0.0-0.0-0.0-1.24","null","<span style='color:GreenYellow; font-size: 70px;'>正确! </span>","null","","","","","","","","","","","","","","","","","","","","","","","","","feedback_test","",""
"","","","","","psychophysics","160","628831","0.0-9.0-0.0-0.0-0.0-0.25","827","","arrowleft","","","","","","","","","","","","","key","arrowleft","16.6587155963307","640","356","arrowleft","true","../../test_img/19.png","生人","matching_task","生人","[""<img src=\""../../test_img/25.png\"" width=150 style=\""vertical-align:middle\"">---自我"",""<img src=\""../../test_img/12.png\"" width=150 style=\""vertical-align:middle\"">---朋友"",""<img src=\""../../test_img/19.png\"" width=150 style=\""vertical-align:middle\"">---生人""]","","",""
"","","","","","html-keyboard-response","161","629333","0.0-9.0-0.0-0.0-0.0-1.25","null","<span style='color:GreenYellow; font-size: 70px;'>正确! </span>","null","","","","","","","","","","","","","","","","","","","","","","","","","feedback_test","",""
"","","","","","psychophysics","162","630986","0.0-9.0-0.0-0.0-0.0-0.26","652","","arrowright","","","","","","","","","","","","","key","arrowright","16.658163265306122","640","356","arrowright","true","../../test_img/25.png","生人","matching_task","自我","[""<img src=\""../../test_img/25.png\"" width=150 style=\""vertical-align:middle\"">---自我"",""<img src=\""../../test_img/12.png\"" width=150 style=\""vertical-align:middle\"">---朋友"",""<img src=\""../../test_img/19.png\"" width=150 style=\""vertical-align:middle\"">---生人""]","","",""
"","","","","","html-keyboard-response","163","631487","0.0-9.0-0.0-0.0-0.0-1.26","null","<span style='color:GreenYellow; font-size: 70px;'>正确! </span>","null","","","","","","","","","","","","","","","","","","","","","","","","","feedback_test","",""
"","","","","","psychophysics","164","633073","0.0-9.0-0.0-0.0-0.0-0.27","583","","arrowleft","","","","","","","","","","","","","key","arrowleft","16.660638297872094","640","356","arrowleft","true","../../test_img/12.png","朋友","matching_task","朋友","[""<img src=\""../../test_img/25.png\"" width=150 style=\""vertical-align:middle\"">---自我"",""<img src=\""../../test_img/12.png\"" width=150 style=\""vertical-align:middle\"">---朋友"",""<img src=\""../../test_img/19.png\"" width=150 style=\""vertical-align:middle\"">---生人""]","","",""
"","","","","","html-keyboard-response","165","633575","0.0-9.0-0.0-0.0-0.0-1.27","null","<span style='color:GreenYellow; font-size: 70px;'>正确! </span>","null","","","","","","","","","","","","","","","","","","","","","","","","","feedback_test","",""
"","","","","","psychophysics","166","635254","0.0-9.0-0.0-0.0-0.0-0.28","677","","arrowleft","","","","","","","","","","","","","key","arrowleft","16.64949494949542","640","356","arrowleft","true","../../test_img/25.png","自我","matching_task","自我","[""<img src=\""../../test_img/25.png\"" width=150 style=\""vertical-align:middle\"">---自我"",""<img src=\""../../test_img/12.png\"" width=150 style=\""vertical-align:middle\"">---朋友"",""<img src=\""../../test_img/19.png\"" width=150 style=\""vertical-align:middle\"">---生人""]","","",""
"","","","","","html-keyboard-response","167","635756","0.0-9.0-0.0-0.0-0.0-1.28","null","<span style='color:GreenYellow; font-size: 70px;'>正确! </span>","null","","","","","","","","","","","","","","","","","","","","","","","","","feedback_test","",""
"","","","","","psychophysics","168","637472","0.0-9.0-0.0-0.0-0.0-0.29","713","","arrowright","","","","","","","","","","","","","key","arrowright","16.659803921569083","640","356","arrowright","true","../../test_img/12.png","生人","matching_task","朋友","[""<img src=\""../../test_img/25.png\"" width=150 style=\""vertical-align:middle\"">---自我"",""<img src=\""../../test_img/12.png\"" width=150 style=\""vertical-align:middle\"">---朋友"",""<img src=\""../../test_img/19.png\"" width=150 style=\""vertical-align:middle\"">---生人""]","","",""
"","","","","","html-keyboard-response","169","637975","0.0-9.0-0.0-0.0-0.0-1.29","null","<span style='color:GreenYellow; font-size: 70px;'>正确! </span>","null","","","","","","","","","","","","","","","","","","","","","","","","","feedback_test","",""
"","","","","","psychophysics","170","639784","0.0-9.0-0.0-0.0-0.0-0.30","806","","arrowright","","","","","","","","","","","","","key","arrowright","16.6588785046729","640","356","arrowright","true","../../test_img/12.png","自我","matching_task","朋友","[""<img src=\""../../test_img/25.png\"" width=150 style=\""vertical-align:middle\"">---自我"",""<img src=\""../../test_img/12.png\"" width=150 style=\""vertical-align:middle\"">---朋友"",""<img src=\""../../test_img/19.png\"" width=150 style=\""vertical-align:middle\"">---生人""]","","",""
"","","","","","html-keyboard-response","171","640287","0.0-9.0-0.0-0.0-0.0-1.30","null","<span style='color:GreenYellow; font-size: 70px;'>正确! </span>","null","","","","","","","","","","","","","","","","","","","","","","","","","feedback_test","",""
"","","","","","psychophysics","172","642111","0.0-9.0-0.0-0.0-0.0-0.31","820","","arrowleft","","","","","","","","","","","","","key","arrowleft","16.661111111111328","640","356","arrowleft","true","../../test_img/19.png","生人","matching_task","生人","[""<img src=\""../../test_img/25.png\"" width=150 style=\""vertical-align:middle\"">---自我"",""<img src=\""../../test_img/12.png\"" width=150 style=\""vertical-align:middle\"">---朋友"",""<img src=\""../../test_img/19.png\"" width=150 style=\""vertical-align:middle\"">---生人""]","","",""
"","","","","","html-keyboard-response","173","642613","0.0-9.0-0.0-0.0-0.0-1.31","null","<span style='color:GreenYellow; font-size: 70px;'>正确! </span>","null","","","","","","","","","","","","","","","","","","","","","","","","","feedback_test","",""
"","","","","","psychophysics","174","644321","0.0-9.0-0.0-0.0-0.0-0.32","707","","arrowleft","","","","","","","","","","","","","key","arrowleft","16.661386138614322","640","356","arrowleft","true","../../test_img/25.png","自我","matching_task","自我","[""<img src=\""../../test_img/25.png\"" width=150 style=\""vertical-align:middle\"">---自我"",""<img src=\""../../test_img/12.png\"" width=150 style=\""vertical-align:middle\"">---朋友"",""<img src=\""../../test_img/19.png\"" width=150 style=\""vertical-align:middle\"">---生人""]","","",""
"","","","","","html-keyboard-response","175","644824","0.0-9.0-0.0-0.0-0.0-1.32","null","<span style='color:GreenYellow; font-size: 70px;'>正确! </span>","null","","","","","","","","","","","","","","","","","","","","","","","","","feedback_test","",""
"","","","","","psychophysics","176","646421","0.0-9.0-0.0-0.0-0.0-0.33","595","","arrowright","","","","","","","","","","","","","key","arrowright","16.660638297872094","640","356","arrowright","true","../../test_img/19.png","自我","matching_task","生人","[""<img src=\""../../test_img/25.png\"" width=150 style=\""vertical-align:middle\"">---自我"",""<img src=\""../../test_img/12.png\"" width=150 style=\""vertical-align:middle\"">---朋友"",""<img src=\""../../test_img/19.png\"" width=150 style=\""vertical-align:middle\"">---生人""]","","",""
"","","","","","html-keyboard-response","177","646924","0.0-9.0-0.0-0.0-0.0-1.33","null","<span style='color:GreenYellow; font-size: 70px;'>正确! </span>","null","","","","","","","","","","","","","","","","","","","","","","","","","feedback_test","",""
"","","","","","psychophysics","178","648620","0.0-9.0-0.0-0.0-0.0-0.34","693","","arrowright","","","","","","","","","","","","","key","arrowright","16.659000000000233","640","356","arrowright","true","../../test_img/25.png","朋友","matching_task","自我","[""<img src=\""../../test_img/25.png\"" width=150 style=\""vertical-align:middle\"">---自我"",""<img src=\""../../test_img/12.png\"" width=150 style=\""vertical-align:middle\"">---朋友"",""<img src=\""../../test_img/19.png\"" width=150 style=\""vertical-align:middle\"">---生人""]","","",""
"","","","","","html-keyboard-response","179","649121","0.0-9.0-0.0-0.0-0.0-1.34","null","<span style='color:GreenYellow; font-size: 70px;'>正确! </span>","null","","","","","","","","","","","","","","","","","","","","","","","","","feedback_test","",""
"","","","","","psychophysics","180","650783","0.0-9.0-0.0-0.0-0.0-0.35","657","","arrowleft","","","","","","","","","","","","","key","arrowleft","16.65876288659818","640","356","arrowleft","true","../../test_img/12.png","朋友","matching_task","朋友","[""<img src=\""../../test_img/25.png\"" width=150 style=\""vertical-align:middle\"">---自我"",""<img src=\""../../test_img/12.png\"" width=150 style=\""vertical-align:middle\"">---朋友"",""<img src=\""../../test_img/19.png\"" width=150 style=\""vertical-align:middle\"">---生人""]","","",""
"","","","","","html-keyboard-response","181","651286","0.0-9.0-0.0-0.0-0.0-1.35","null","<span style='color:GreenYellow; font-size: 70px;'>正确! </span>","null","","","","","","","","","","","","","","","","","","","","","","","","","feedback_test","",""
"","","","","","psychophysics","182","653209","0.0-9.0-0.0-0.0-0.0-0.36","920","","arrowleft","","","","","","","","","","","","","key","arrowleft","16.657894736842106","640","356","arrowright","false","../../test_img/12.png","生人","matching_task","朋友","[""<img src=\""../../test_img/25.png\"" width=150 style=\""vertical-align:middle\"">---自我"",""<img src=\""../../test_img/12.png\"" width=150 style=\""vertical-align:middle\"">---朋友"",""<img src=\""../../test_img/19.png\"" width=150 style=\""vertical-align:middle\"">---生人""]","","",""
"","","","","","html-keyboard-response","183","653712","0.0-9.0-0.0-0.0-0.0-1.36","null","<span style='color:red; font-size: 70px;'>错误! </span>","null","","","","","","","","","","","","","","","","","","","","","","","","","feedback_test","",""
"","","","","","psychophysics","184","655297","0.0-9.0-0.0-0.0-0.0-0.37","581","","arrowleft","","","","","","","","","","","","","key","arrowleft","16.659574468085108","640","356","arrowleft","true","../../test_img/25.png","自我","matching_task","自我","[""<img src=\""../../test_img/25.png\"" width=150 style=\""vertical-align:middle\"">---自我"",""<img src=\""../../test_img/12.png\"" width=150 style=\""vertical-align:middle\"">---朋友"",""<img src=\""../../test_img/19.png\"" width=150 style=\""vertical-align:middle\"">---生人""]","","",""
"","","","","","html-keyboard-response","185","655799","0.0-9.0-0.0-0.0-0.0-1.37","null","<span style='color:GreenYellow; font-size: 70px;'>正确! </span>","null","","","","","","","","","","","","","","","","","","","","","","","","","feedback_test","",""
"","","","","","psychophysics","186","657408","0.0-9.0-0.0-0.0-0.0-0.38","607","","arrowleft","","","","","","","","","","","","","key","arrowleft","16.647368421052633","640","356","arrowleft","true","../../test_img/12.png","朋友","matching_task","朋友","[""<img src=\""../../test_img/25.png\"" width=150 style=\""vertical-align:middle\"">---自我"",""<img src=\""../../test_img/12.png\"" width=150 style=\""vertical-align:middle\"">---朋友"",""<img src=\""../../test_img/19.png\"" width=150 style=\""vertical-align:middle\"">---生人""]","","",""
"","","","","","html-keyboard-response","187","657911","0.0-9.0-0.0-0.0-0.0-1.38","null","<span style='color:GreenYellow; font-size: 70px;'>正确! </span>","null","","","","","","","","","","","","","","","","","","","","","","","","","feedback_test","",""
"","","","","","psychophysics","188","659562","0.0-9.0-0.0-0.0-0.0-0.39","650","","arrowright","","","","","","","","","","","","","key","arrowright","16.660204081633367","640","356","arrowright","true","../../test_img/25.png","生人","matching_task","自我","[""<img src=\""../../test_img/25.png\"" width=150 style=\""vertical-align:middle\"">---自我"",""<img src=\""../../test_img/12.png\"" width=150 style=\""vertical-align:middle\"">---朋友"",""<img src=\""../../test_img/19.png\"" width=150 style=\""vertical-align:middle\"">---生人""]","","",""
"","","","","","html-keyboard-response","189","660065","0.0-9.0-0.0-0.0-0.0-1.39","null","<span style='color:GreenYellow; font-size: 70px;'>正确! </span>","null","","","","","","","","","","","","","","","","","","","","","","","","","feedback_test","",""
"","","","","","psychophysics","190","661860","0.0-9.0-0.0-0.0-0.0-0.40","791","","arrowright","","","","","","","","","","","","","key","arrowright","16.65943396226437","640","356","arrowright","true","../../test_img/12.png","自我","matching_task","朋友","[""<img src=\""../../test_img/25.png\"" width=150 style=\""vertical-align:middle\"">---自我"",""<img src=\""../../test_img/12.png\"" width=150 style=\""vertical-align:middle\"">---朋友"",""<img src=\""../../test_img/19.png\"" width=150 style=\""vertical-align:middle\"">---生人""]","","",""
"","","","","","html-keyboard-response","191","662363","0.0-9.0-0.0-0.0-0.0-1.40","null","<span style='color:GreenYellow; font-size: 70px;'>正确! </span>","null","","","","","","","","","","","","","","","","","","","","","","","","","feedback_test","",""
"","","","","","psychophysics","192","664106","0.0-9.0-0.0-0.0-0.0-0.41","742","","arrowright","","","","","","","","","","","","","key","arrowright","16.65339805825175","640","356","arrowright","true","../../test_img/25.png","朋友","matching_task","自我","[""<img src=\""../../test_img/25.png\"" width=150 style=\""vertical-align:middle\"">---自我"",""<img src=\""../../test_img/12.png\"" width=150 style=\""vertical-align:middle\"">---朋友"",""<img src=\""../../test_img/19.png\"" width=150 style=\""vertical-align:middle\"">---生人""]","","",""
"","","","","","html-keyboard-response","193","664607","0.0-9.0-0.0-0.0-0.0-1.41","null","<span style='color:GreenYellow; font-size: 70px;'>正确! </span>","null","","","","","","","","","","","","","","","","","","","","","","","","","feedback_test","",""
"","","","","","psychophysics","194","666370","0.0-9.0-0.0-0.0-0.0-0.42","761","","arrowleft","","","","","","","","","","","","","key","arrowleft","16.660000000000444","640","356","arrowleft","true","../../test_img/19.png","生人","matching_task","生人","[""<img src=\""../../test_img/25.png\"" width=150 style=\""vertical-align:middle\"">---自我"",""<img src=\""../../test_img/12.png\"" width=150 style=\""vertical-align:middle\"">---朋友"",""<img src=\""../../test_img/19.png\"" width=150 style=\""vertical-align:middle\"">---生人""]","","",""
"","","","","","html-keyboard-response","195","666872","0.0-9.0-0.0-0.0-0.0-1.42","null","<span style='color:GreenYellow; font-size: 70px;'>正确! </span>","null","","","","","","","","","","","","","","","","","","","","","","","","","feedback_test","",""
"","","","","","psychophysics","196","668487","0.0-9.0-0.0-0.0-0.0-0.43","612","","arrowleft","","","","","","","","","","","","","key","arrowleft","16.661458333333332","640","356","arrowleft","true","../../test_img/25.png","自我","matching_task","自我","[""<img src=\""../../test_img/25.png\"" width=150 style=\""vertical-align:middle\"">---自我"",""<img src=\""../../test_img/12.png\"" width=150 style=\""vertical-align:middle\"">---朋友"",""<img src=\""../../test_img/19.png\"" width=150 style=\""vertical-align:middle\"">---生人""]","","",""
"","","","","","html-keyboard-response","197","668989","0.0-9.0-0.0-0.0-0.0-1.43","null","<span style='color:GreenYellow; font-size: 70px;'>正确! </span>","null","","","","","","","","","","","","","","","","","","","","","","","","","feedback_test","",""
"","","","","","psychophysics","198","670697","0.0-9.0-0.0-0.0-0.0-0.44","705","","arrowright","","","","","","","","","","","","","key","arrowright","16.65431683168327","640","356","arrowright","true","../../test_img/19.png","朋友","matching_task","生人","[""<img src=\""../../test_img/25.png\"" width=150 style=\""vertical-align:middle\"">---自我"",""<img src=\""../../test_img/12.png\"" width=150 style=\""vertical-align:middle\"">---朋友"",""<img src=\""../../test_img/19.png\"" width=150 style=\""vertical-align:middle\"">---生人""]","","",""
"","","","","","html-keyboard-response","199","671198","0.0-9.0-0.0-0.0-0.0-1.44","null","<span style='color:GreenYellow; font-size: 70px;'>正确! </span>","null","","","","","","","","","","","","","","","","","","","","","","","","","feedback_test","",""
"","","","","","psychophysics","200","673023","0.0-9.0-0.0-0.0-0.0-0.45","824","","arrowleft","","","","","","","","","","","","","key","arrowleft","16.659259259259905","640","356","arrowleft","true","../../test_img/19.png","生人","matching_task","生人","[""<img src=\""../../test_img/25.png\"" width=150 style=\""vertical-align:middle\"">---自我"",""<img src=\""../../test_img/12.png\"" width=150 style=\""vertical-align:middle\"">---朋友"",""<img src=\""../../test_img/19.png\"" width=150 style=\""vertical-align:middle\"">---生人""]","","",""
"","","","","","html-keyboard-response","201","673525","0.0-9.0-0.0-0.0-0.0-1.45","null","<span style='color:GreenYellow; font-size: 70px;'>正确! </span>","null","","","","","","","","","","","","","","","","","","","","","","","","","feedback_test","",""
"","","","","","psychophysics","202","675132","0.0-9.0-0.0-0.0-0.0-0.46","604","","arrowleft","","","","","","","","","","","","","key","arrowleft","16.658947368420808","640","356","arrowleft","true","../../test_img/12.png","朋友","matching_task","朋友","[""<img src=\""../../test_img/25.png\"" width=150 style=\""vertical-align:middle\"">---自我"",""<img src=\""../../test_img/12.png\"" width=150 style=\""vertical-align:middle\"">---朋友"",""<img src=\""../../test_img/19.png\"" width=150 style=\""vertical-align:middle\"">---生人""]","","",""
"","","","","","html-keyboard-response","203","675633","0.0-9.0-0.0-0.0-0.0-1.46","null","<span style='color:GreenYellow; font-size: 70px;'>正确! </span>","null","","","","","","","","","","","","","","","","","","","","","","","","","feedback_test","",""
"","","","","","psychophysics","204","677208","0.0-9.0-0.0-0.0-0.0-0.47","572","","arrowright","","","","","","","","","","","","","key","arrowright","16.657446808511132","640","356","arrowright","true","../../test_img/19.png","自我","matching_task","生人","[""<img src=\""../../test_img/25.png\"" width=150 style=\""vertical-align:middle\"">---自我"",""<img src=\""../../test_img/12.png\"" width=150 style=\""vertical-align:middle\"">---朋友"",""<img src=\""../../test_img/19.png\"" width=150 style=\""vertical-align:middle\"">---生人""]","","",""
"","","","","","html-keyboard-response","205","677712","0.0-9.0-0.0-0.0-0.0-1.47","null","<span style='color:GreenYellow; font-size: 70px;'>正确! </span>","null","","","","","","","","","","","","","","","","","","","","","","","","","feedback_test","",""
"","","","","","psychophysics","206","679437","0.0-9.0-0.0-0.0-0.0-0.48","722","","arrowright","","","","","","","","","","","","","key","arrowright","16.659803921567942","640","356","arrowright","true","../../test_img/12.png","生人","matching_task","朋友","[""<img src=\""../../test_img/25.png\"" width=150 style=\""vertical-align:middle\"">---自我"",""<img src=\""../../test_img/12.png\"" width=150 style=\""vertical-align:middle\"">---朋友"",""<img src=\""../../test_img/19.png\"" width=150 style=\""vertical-align:middle\"">---生人""]","","",""
"","","","","","html-keyboard-response","207","679939","0.0-9.0-0.0-0.0-0.0-1.48","null","<span style='color:GreenYellow; font-size: 70px;'>正确! </span>","null","","","","","","","","","","","","","","","","","","","","","","","","","feedback_test","",""
"","","","","","psychophysics","208","681739","0.0-9.0-0.0-0.0-0.0-0.49","797","","arrowleft","","","","","","","","","","","","","key","arrowleft","16.660377358490567","640","356","arrowleft","true","../../test_img/12.png","朋友","matching_task","朋友","[""<img src=\""../../test_img/25.png\"" width=150 style=\""vertical-align:middle\"">---自我"",""<img src=\""../../test_img/12.png\"" width=150 style=\""vertical-align:middle\"">---朋友"",""<img src=\""../../test_img/19.png\"" width=150 style=\""vertical-align:middle\"">---生人""]","","",""
"","","","","","html-keyboard-response","209","682240","0.0-9.0-0.0-0.0-0.0-1.49","null","<span style='color:GreenYellow; font-size: 70px;'>正确! </span>","null","","","","","","","","","","","","","","","","","","","","","","","","","feedback_test","",""
"","","","","","psychophysics","210","683963","0.0-9.0-0.0-0.0-0.0-0.50","719","","arrowright","","","","","","","","","","","","","key","arrowright","16.658823529412448","640","356","arrowright","true","../../test_img/19.png","朋友","matching_task","生人","[""<img src=\""../../test_img/25.png\"" width=150 style=\""vertical-align:middle\"">---自我"",""<img src=\""../../test_img/12.png\"" width=150 style=\""vertical-align:middle\"">---朋友"",""<img src=\""../../test_img/19.png\"" width=150 style=\""vertical-align:middle\"">---生人""]","","",""
"","","","","","html-keyboard-response","211","684465","0.0-9.0-0.0-0.0-0.0-1.50","null","<span style='color:GreenYellow; font-size: 70px;'>正确! </span>","null","","","","","","","","","","","","","","","","","","","","","","","","","feedback_test","",""
"","","","","","psychophysics","212","686218","0.0-9.0-0.0-0.0-0.0-0.51","751","","arrowleft","","","","","","","","","","","","","key","arrowleft","16.658653846153847","640","356","arrowleft","true","../../test_img/12.png","朋友","matching_task","朋友","[""<img src=\""../../test_img/25.png\"" width=150 style=\""vertical-align:middle\"">---自我"",""<img src=\""../../test_img/12.png\"" width=150 style=\""vertical-align:middle\"">---朋友"",""<img src=\""../../test_img/19.png\"" width=150 style=\""vertical-align:middle\"">---生人""]","","",""
"","","","","","html-keyboard-response","213","686722","0.0-9.0-0.0-0.0-0.0-1.51","null","<span style='color:GreenYellow; font-size: 70px;'>正确! </span>","null","","","","","","","","","","","","","","","","","","","","","","","","","feedback_test","",""
"","","","","","psychophysics","214","688363","0.0-9.0-0.0-0.0-0.0-0.52","638","","arrowright","","","","","","","","","","","","","key","arrowright","16.65876288659818","640","356","arrowright","true","../../test_img/25.png","生人","matching_task","自我","[""<img src=\""../../test_img/25.png\"" width=150 style=\""vertical-align:middle\"">---自我"",""<img src=\""../../test_img/12.png\"" width=150 style=\""vertical-align:middle\"">---朋友"",""<img src=\""../../test_img/19.png\"" width=150 style=\""vertical-align:middle\"">---生人""]","","",""
"","","","","","html-keyboard-response","215","688864","0.0-9.0-0.0-0.0-0.0-1.52","null","<span style='color:GreenYellow; font-size: 70px;'>正确! </span>","null","","","","","","","","","","","","","","","","","","","","","","","","","feedback_test","",""
"","","","","","psychophysics","216","690729","0.0-9.0-0.0-0.0-0.0-0.53","862","","arrowleft","","","","","","","","","","","","","key","arrowleft","16.660360360359732","640","356","arrowleft","true","../../test_img/19.png","生人","matching_task","生人","[""<img src=\""../../test_img/25.png\"" width=150 style=\""vertical-align:middle\"">---自我"",""<img src=\""../../test_img/12.png\"" width=150 style=\""vertical-align:middle\"">---朋友"",""<img src=\""../../test_img/19.png\"" width=150 style=\""vertical-align:middle\"">---生人""]","","",""
"","","","","","html-keyboard-response","217","691231","0.0-9.0-0.0-0.0-0.0-1.53","null","<span style='color:GreenYellow; font-size: 70px;'>正确! </span>","null","","","","","","","","","","","","","","","","","","","","","","","","","feedback_test","",""
"","","","","","psychophysics","218","693260","0.0-9.0-0.0-0.0-0.0-0.54","1027","","arrowleft","","","","","","","","","","","","","key","arrowleft","16.66033057851259","640","356","arrowleft","true","../../test_img/19.png","生人","matching_task","生人","[""<img src=\""../../test_img/25.png\"" width=150 style=\""vertical-align:middle\"">---自我"",""<img src=\""../../test_img/12.png\"" width=150 style=\""vertical-align:middle\"">---朋友"",""<img src=\""../../test_img/19.png\"" width=150 style=\""vertical-align:middle\"">---生人""]","","",""
"","","","","","html-keyboard-response","219","693762","0.0-9.0-0.0-0.0-0.0-1.54","null","<span style='color:GreenYellow; font-size: 70px;'>正确! </span>","null","","","","","","","","","","","","","","","","","","","","","","","","","feedback_test","",""
"","","","","","psychophysics","220","695501","0.0-9.0-0.0-0.0-0.0-0.55","736","","arrowright","","","","","","","","","","","","","key","arrowright","16.661165048543463","640","356","arrowright","true","../../test_img/19.png","自我","matching_task","生人","[""<img src=\""../../test_img/25.png\"" width=150 style=\""vertical-align:middle\"">---自我"",""<img src=\""../../test_img/12.png\"" width=150 style=\""vertical-align:middle\"">---朋友"",""<img src=\""../../test_img/19.png\"" width=150 style=\""vertical-align:middle\"">---生人""]","","",""
"","","","","","html-keyboard-response","221","696005","0.0-9.0-0.0-0.0-0.0-1.55","null","<span style='color:GreenYellow; font-size: 70px;'>正确! </span>","null","","","","","","","","","","","","","","","","","","","","","","","","","feedback_test","",""
"","","","","","psychophysics","222","697706","0.0-9.0-0.0-0.0-0.0-0.56","699","","arrowright","","","","","","","","","","","","","key","arrowright","16.657425742573334","640","356","arrowleft","false","../../test_img/25.png","自我","matching_task","自我","[""<img src=\""../../test_img/25.png\"" width=150 style=\""vertical-align:middle\"">---自我"",""<img src=\""../../test_img/12.png\"" width=150 style=\""vertical-align:middle\"">---朋友"",""<img src=\""../../test_img/19.png\"" width=150 style=\""vertical-align:middle\"">---生人""]","","",""
"","","","","","html-keyboard-response","223","698208","0.0-9.0-0.0-0.0-0.0-1.56","null","<span style='color:red; font-size: 70px;'>错误! </span>","null","","","","","","","","","","","","","","","","","","","","","","","","","feedback_test","",""
"","","","","","psychophysics","224","699943","0.0-9.0-0.0-0.0-0.0-0.57","733","","arrowright","","","","","","","","","","","","","key","arrowright","16.658252427183786","640","356","arrowright","true","../../test_img/25.png","朋友","matching_task","自我","[""<img src=\""../../test_img/25.png\"" width=150 style=\""vertical-align:middle\"">---自我"",""<img src=\""../../test_img/12.png\"" width=150 style=\""vertical-align:middle\"">---朋友"",""<img src=\""../../test_img/19.png\"" width=150 style=\""vertical-align:middle\"">---生人""]","","",""
"","","","","","html-keyboard-response","225","700446","0.0-9.0-0.0-0.0-0.0-1.57","null","<span style='color:GreenYellow; font-size: 70px;'>正确! </span>","null","","","","","","","","","","","","","","","","","","","","","","","","","feedback_test","",""
"","","","","","psychophysics","226","702154","0.0-9.0-0.0-0.0-0.0-0.58","704","","arrowleft","","","","","","","","","","","","","key","arrowleft","16.659405940593828","640","356","arrowleft","true","../../test_img/25.png","自我","matching_task","自我","[""<img src=\""../../test_img/25.png\"" width=150 style=\""vertical-align:middle\"">---自我"",""<img src=\""../../test_img/12.png\"" width=150 style=\""vertical-align:middle\"">---朋友"",""<img src=\""../../test_img/19.png\"" width=150 style=\""vertical-align:middle\"">---生人""]","","",""
"","","","","","html-keyboard-response","227","702657","0.0-9.0-0.0-0.0-0.0-1.58","null","<span style='color:GreenYellow; font-size: 70px;'>正确! </span>","null","","","","","","","","","","","","","","","","","","","","","","","","","feedback_test","",""
"","","","","","psychophysics","228","704275","0.0-9.0-0.0-0.0-0.0-0.59","616","","arrowright","","","","","","","","","","","","","key","arrowright","16.661458333333332","640","356","arrowright","true","../../test_img/12.png","自我","matching_task","朋友","[""<img src=\""../../test_img/25.png\"" width=150 style=\""vertical-align:middle\"">---自我"",""<img src=\""../../test_img/12.png\"" width=150 style=\""vertical-align:middle\"">---朋友"",""<img src=\""../../test_img/19.png\"" width=150 style=\""vertical-align:middle\"">---生人""]","","",""
"","","","","","html-keyboard-response","229","704778","0.0-9.0-0.0-0.0-0.0-1.59","null","<span style='color:GreenYellow; font-size: 70px;'>正确! </span>","null","","","","","","","","","","","","","","","","","","","","","","","","","feedback_test","",""
"","","","","","psychophysics","230","706585","0.0-9.0-0.0-0.0-0.0-0.60","805","","arrowleft","","","","","","","","","","","","","key","arrowleft","16.65981308411193","640","356","arrowleft","true","../../test_img/19.png","生人","matching_task","生人","[""<img src=\""../../test_img/25.png\"" width=150 style=\""vertical-align:middle\"">---自我"",""<img src=\""../../test_img/12.png\"" width=150 style=\""vertical-align:middle\"">---朋友"",""<img src=\""../../test_img/19.png\"" width=150 style=\""vertical-align:middle\"">---生人""]","","",""
"","","","","","html-keyboard-response","231","707087","0.0-9.0-0.0-0.0-0.0-1.60","null","<span style='color:GreenYellow; font-size: 70px;'>正确! </span>","null","","","","","","","","","","","","","","","","","","","","","","","","","feedback_test","",""
"","","","","","psychophysics","232","708757","0.0-9.0-0.0-0.0-0.0-0.61","666","","arrowright","","","","","","","","","","","","","key","arrowright","16.659595959595254","640","356","arrowright","true","../../test_img/12.png","自我","matching_task","朋友","[""<img src=\""../../test_img/25.png\"" width=150 style=\""vertical-align:middle\"">---自我"",""<img src=\""../../test_img/12.png\"" width=150 style=\""vertical-align:middle\"">---朋友"",""<img src=\""../../test_img/19.png\"" width=150 style=\""vertical-align:middle\"">---生人""]","","",""
"","","","","","html-keyboard-response","233","709259","0.0-9.0-0.0-0.0-0.0-1.61","null","<span style='color:GreenYellow; font-size: 70px;'>正确! </span>","null","","","","","","","","","","","","","","","","","","","","","","","","","feedback_test","",""
"","","","","","psychophysics","234","711006","0.0-9.0-0.0-0.0-0.0-0.62","743","","arrowright","","","","","","","","","","","","","key","arrowright","16.65922330096997","640","356","arrowright","true","../../test_img/19.png","朋友","matching_task","生人","[""<img src=\""../../test_img/25.png\"" width=150 style=\""vertical-align:middle\"">---自我"",""<img src=\""../../test_img/12.png\"" width=150 style=\""vertical-align:middle\"">---朋友"",""<img src=\""../../test_img/19.png\"" width=150 style=\""vertical-align:middle\"">---生人""]","","",""
"","","","","","html-keyboard-response","235","711509","0.0-9.0-0.0-0.0-0.0-1.62","null","<span style='color:GreenYellow; font-size: 70px;'>正确! </span>","null","","","","","","","","","","","","","","","","","","","","","","","","","feedback_test","",""
"","","","","","psychophysics","236","713134","0.0-9.0-0.0-0.0-0.0-0.63","624","","arrowleft","","","","","","","","","","","","","key","arrowleft","16.659375000000484","640","356","arrowleft","true","../../test_img/25.png","自我","matching_task","自我","[""<img src=\""../../test_img/25.png\"" width=150 style=\""vertical-align:middle\"">---自我"",""<img src=\""../../test_img/12.png\"" width=150 style=\""vertical-align:middle\"">---朋友"",""<img src=\""../../test_img/19.png\"" width=150 style=\""vertical-align:middle\"">---生人""]","","",""
"","","","","","html-keyboard-response","237","713635","0.0-9.0-0.0-0.0-0.0-1.63","null","<span style='color:GreenYellow; font-size: 70px;'>正确! </span>","null","","","","","","","","","","","","","","","","","","","","","","","","","feedback_test","",""
"","","","","","psychophysics","238","715252","0.0-9.0-0.0-0.0-0.0-0.64","614","","arrowleft","","","","","","","","","","","","","key","arrowleft","16.659375000000484","640","356","arrowleft","true","../../test_img/12.png","朋友","matching_task","朋友","[""<img src=\""../../test_img/25.png\"" width=150 style=\""vertical-align:middle\"">---自我"",""<img src=\""../../test_img/12.png\"" width=150 style=\""vertical-align:middle\"">---朋友"",""<img src=\""../../test_img/19.png\"" width=150 style=\""vertical-align:middle\"">---生人""]","","",""
"","","","","","html-keyboard-response","239","715753","0.0-9.0-0.0-0.0-0.0-1.64","null","<span style='color:GreenYellow; font-size: 70px;'>正确! </span>","null","","","","","","","","","","","","","","","","","","","","","","","","","feedback_test","",""
"","","","","","psychophysics","240","717263","0.0-9.0-0.0-0.0-0.0-0.65","508","","arrowleft","","","","","","","","","","","","","key","arrowleft","16.841111111110592","640","356","arrowleft","true","../../test_img/12.png","朋友","matching_task","朋友","[""<img src=\""../../test_img/25.png\"" width=150 style=\""vertical-align:middle\"">---自我"",""<img src=\""../../test_img/12.png\"" width=150 style=\""vertical-align:middle\"">---朋友"",""<img src=\""../../test_img/19.png\"" width=150 style=\""vertical-align:middle\"">---生人""]","","",""
"","","","","","html-keyboard-response","241","717765","0.0-9.0-0.0-0.0-0.0-1.65","null","<span style='color:GreenYellow; font-size: 70px;'>正确! </span>","null","","","","","","","","","","","","","","","","","","","","","","","","","feedback_test","",""
"","","","","","psychophysics","242","719365","0.0-9.0-0.0-0.0-0.0-0.66","598","","arrowleft","","","","","","","","","","","","","key","arrowleft","16.657389473683494","640","356","arrowleft","true","../../test_img/25.png","自我","matching_task","自我","[""<img src=\""../../test_img/25.png\"" width=150 style=\""vertical-align:middle\"">---自我"",""<img src=\""../../test_img/12.png\"" width=150 style=\""vertical-align:middle\"">---朋友"",""<img src=\""../../test_img/19.png\"" width=150 style=\""vertical-align:middle\"">---生人""]","","",""
"","","","","","html-keyboard-response","243","719866","0.0-9.0-0.0-0.0-0.0-1.66","null","<span style='color:GreenYellow; font-size: 70px;'>正确! </span>","null","","","","","","","","","","","","","","","","","","","","","","","","","feedback_test","",""
"","","","","","psychophysics","244","721559","0.0-9.0-0.0-0.0-0.0-0.67","690","","arrowright","","","","","","","","","","","","","key","arrowright","16.658000000000467","640","356","arrowright","true","../../test_img/25.png","生人","matching_task","自我","[""<img src=\""../../test_img/25.png\"" width=150 style=\""vertical-align:middle\"">---自我"",""<img src=\""../../test_img/12.png\"" width=150 style=\""vertical-align:middle\"">---朋友"",""<img src=\""../../test_img/19.png\"" width=150 style=\""vertical-align:middle\"">---生人""]","","",""
"","","","","","html-keyboard-response","245","722061","0.0-9.0-0.0-0.0-0.0-1.67","null","<span style='color:GreenYellow; font-size: 70px;'>正确! </span>","null","","","","","","","","","","","","","","","","","","","","","","","","","feedback_test","",""
"","","","","","psychophysics","246","723762","0.0-9.0-0.0-0.0-0.0-0.68","699","","arrowright","","","","","","","","","","","","","key","arrowright","16.660396039603498","640","356","arrowright","true","../../test_img/12.png","生人","matching_task","朋友","[""<img src=\""../../test_img/25.png\"" width=150 style=\""vertical-align:middle\"">---自我"",""<img src=\""../../test_img/12.png\"" width=150 style=\""vertical-align:middle\"">---朋友"",""<img src=\""../../test_img/19.png\"" width=150 style=\""vertical-align:middle\"">---生人""]","","",""
"","","","","","html-keyboard-response","247","724264","0.0-9.0-0.0-0.0-0.0-1.68","null","<span style='color:GreenYellow; font-size: 70px;'>正确! </span>","null","","","","","","","","","","","","","","","","","","","","","","","","","feedback_test","",""
"","","","","","psychophysics","248","726148","0.0-9.0-0.0-0.0-0.0-0.69","881","","arrowleft","","","","","","","","","","","","","key","arrowleft","16.658928571428987","640","356","arrowleft","true","../../test_img/19.png","生人","matching_task","生人","[""<img src=\""../../test_img/25.png\"" width=150 style=\""vertical-align:middle\"">---自我"",""<img src=\""../../test_img/12.png\"" width=150 style=\""vertical-align:middle\"">---朋友"",""<img src=\""../../test_img/19.png\"" width=150 style=\""vertical-align:middle\"">---生人""]","","",""
"","","","","","html-keyboard-response","249","726649","0.0-9.0-0.0-0.0-0.0-1.69","null","<span style='color:GreenYellow; font-size: 70px;'>正确! </span>","null","","","","","","","","","","","","","","","","","","","","","","","","","feedback_test","",""
"","","","","","psychophysics","250","728466","0.0-9.0-0.0-0.0-0.0-0.70","814","","arrowright","","","","","","","","","","","","","key","arrowright","16.653271028036514","640","356","arrowright","true","../../test_img/25.png","朋友","matching_task","自我","[""<img src=\""../../test_img/25.png\"" width=150 style=\""vertical-align:middle\"">---自我"",""<img src=\""../../test_img/12.png\"" width=150 style=\""vertical-align:middle\"">---朋友"",""<img src=\""../../test_img/19.png\"" width=150 style=\""vertical-align:middle\"">---生人""]","","",""
"","","","","","html-keyboard-response","251","728969","0.0-9.0-0.0-0.0-0.0-1.70","null","<span style='color:GreenYellow; font-size: 70px;'>正确! </span>","null","","","","","","","","","","","","","","","","","","","","","","","","","feedback_test","",""
"","","","","","psychophysics","252","730638","0.0-9.0-0.0-0.0-0.0-0.71","666","","arrowright","","","","","","","","","","","","","key","arrowright","16.660606060606295","640","356","arrowright","true","../../test_img/19.png","自我","matching_task","生人","[""<img src=\""../../test_img/25.png\"" width=150 style=\""vertical-align:middle\"">---自我"",""<img src=\""../../test_img/12.png\"" width=150 style=\""vertical-align:middle\"">---朋友"",""<img src=\""../../test_img/19.png\"" width=150 style=\""vertical-align:middle\"">---生人""]","","",""
"","","","","","html-keyboard-response","253","731140","0.0-9.0-0.0-0.0-0.0-1.71","null","<span style='color:GreenYellow; font-size: 70px;'>正确! </span>","null","","","","","","","","","","","","","","","","","","","","","","","","","feedback_test","",""
"","","","","","html-keyboard-response","254","734970","0.0-9.0-0.0-0.0-1.0","3828","<style>.context{color:white; font-size: 35px; line-height:40px}</style>                          <div><p class='context'>您正确回答了94% 的试次。</p><p class='context'>您的平均反应时为714毫秒。</p><p class='context'>请按任意键进入休息</p></div>"," ","","","","","","","","","","","","","","","","","","","","","","","","","","",""
"","","","","","html-button-response","255","792071","0.0-9.0-0.0-0.0-2.0","57099","
                    <p>知觉匹配任务中，您还剩余4组实验</p>
                    <p>现在是休息时间，当您结束休息后，您可以点击 结束休息 按钮 继续</p>
                    <p>建议休息时间还剩余<span id=""iii"">60</span>秒</p>","0","","","","","","","","","","","","","","","","","","","","","","","","","","",""
"","","","","","psychophysics","256","793661","0.0-9.0-0.0-0.0-0.1-0.72","588","","arrowleft","","","","","","","","","","","","","key","arrowleft","16.653157894737333","640","356","arrowleft","true","../../test_img/25.png","自我","matching_task","自我","[""<img src=\""../../test_img/25.png\"" width=150 style=\""vertical-align:middle\"">---自我"",""<img src=\""../../test_img/12.png\"" width=150 style=\""vertical-align:middle\"">---朋友"",""<img src=\""../../test_img/19.png\"" width=150 style=\""vertical-align:middle\"">---生人""]","","",""
"","","","","","html-keyboard-response","257","794163","0.0-9.0-0.0-0.0-0.1-1.72","null","<span style='color:GreenYellow; font-size: 70px;'>正确! </span>","null","","","","","","","","","","","","","","","","","","","","","","","","","feedback_test","",""
