"success","timeout","failed_images","failed_audio","failed_video","trial_type","trial_index","time_elapsed","internal_node_id","rt","stimulus","response","value","item_width_mm","item_height_mm","item_width_px","px2mm","view_dist_mm","item_width_deg","px2deg","scale_factor","win_width_deg","win_height_deg","view_history","response_type","key_press","avg_frame_time","center_x","center_y","correct_response","correct","Image","word","condition","shape","association","screen_id","LeftLable","RightLable"
"true","false","[]","[]","[]","preload","0","391","0.0-0.0","","","","","","","","","","","","","","","","","","","","","","","","","","","","","",""
"","","","","","html-keyboard-response","1","9332","0.0-1.0","8940","
     <p>您好，欢迎参加本次实验。</p>
     <p>为充分保障您的权利，请确保您已经知晓并同意《参与实验同意书》以及《数据公开知情同意书》。</p>
     <p>如果您未见过上述内容，请咨询实验员。</p>
     <p>如果您选择继续实验，则表示您已经清楚两份知情同意书的内容并同意。</p>
     <p> <div style = ""color: green""><按任意键至下页></div> </p>
     ","arrowright","","","","","","","","","","","","","","","","","","","","","","","","","","",""
"","","","","","html-keyboard-response","2","10881","0.0-2.0","1548","
     <p>本实验首先需要您填写一些基本个人信息。</p>
     <p> <div style = ""color: green""><按任意键至下页></div></p>
     ","arrowright","","","","","","","","","","","","","","","","","","","","","","","","","","",""
"","","","","","call-function","3","10882","0.0-3.0-0.0","","","","","","","","","","","","","","","","","","","","","","","","","","","","","",""
"","","","","","survey-html-form","4","15885","0.0-3.0-1.0","5001","","{""Q0"":""09""}","","","","","","","","","","","","","","","","","","","","","","","","","","",""
"","","","","","html-button-response","5","16935","0.0-3.0-2.0","1048","<p style = 'color : white'>您的性别</p>","1","","","","","","","","","","","","","","","","","","","","","","","","","","",""
"","","","","","survey-html-form","6","20424","0.0-3.0-3.0","3488","","{""Q0"":""2002""}","","","","","","","","","","","","","","","","","","","","","","","","","","",""
"","","","","","survey-html-form","7","44024","0.0-3.0-4.0","23600","","{""Q0"":""5""}","","","","","","","","","","","","","","","","","","","","","","","","","","",""
"","","","","","virtual-chinrest","8","195699","0.0-4.0","151673","","","","85.6","53.98","471.8646738219093","5.512649795130961","518.52","9.437293476438187","50","0.8816086964734433","27.84","15.52","","","","","","","","","","","","","","","",""
"true","","","","","fullscreen","9","199744","0.0-5.0","","","","","","","","","","","","","","","","","","","","","","","","","","","","","",""
"","","","","","instructions","10","236769","0.0-6.0","37023","","","","","","","","","","","","","","[{""page_index"":0,""viewing_time"":5472},{""page_index"":1,""viewing_time"":8252},{""page_index"":2,""viewing_time"":15854},{""page_index"":3,""viewing_time"":4426},{""page_index"":4,""viewing_time"":3019}]","","","","","","","","","","","","","","",""
"","","","","","psychophysics","11","239284","0.0-7.0-0.0-0.0","null","","null","","","","","","","","","","","","","key","null","16.671999999999922","720","446","arrowleft","false","../../test_img/19.png","生人","prac_matching_task","自我","[""<img src=\""../../test_img/25.png\"" width=150 style=\""vertical-align:middle\"">---朋友"",""<img src=\""../../test_img/19.png\"" width=150 style=\""vertical-align:middle\"">---自我"",""<img src=\""../../test_img/12.png\"" width=150 style=\""vertical-align:middle\"">---生人""]","","",""
"","","","","","html-keyboard-response","12","239593","0.0-7.0-0.0-1.0","null","<span class='add_' style='color:yellow; font-size: 70px;'> 太慢! </span>","null","","","","","","","","","","","","","","","","","","","","","","","","","feedback_test","",""
"","","","","","psychophysics","13","242107","0.0-7.0-0.0-0.1","null","","null","","","","","","","","","","","","","key","null","16.671621621621583","720","446","arrowleft","false","../../test_img/25.png","自我","prac_matching_task","朋友","[""<img src=\""../../test_img/25.png\"" width=150 style=\""vertical-align:middle\"">---朋友"",""<img src=\""../../test_img/19.png\"" width=150 style=\""vertical-align:middle\"">---自我"",""<img src=\""../../test_img/12.png\"" width=150 style=\""vertical-align:middle\"">---生人""]","","",""
"","","","","","html-keyboard-response","14","242418","0.0-7.0-0.0-1.1","null","<span class='add_' style='color:yellow; font-size: 70px;'> 太慢! </span>","null","","","","","","","","","","","","","","","","","","","","","","","","","feedback_test","",""
"","","","","","psychophysics","15","244931","0.0-7.0-0.0-0.2","null","","null","","","","","","","","","","","","","key","null","16.670469798657678","720","446","arrowright","false","../../test_img/12.png","生人","prac_matching_task","生人","[""<img src=\""../../test_img/25.png\"" width=150 style=\""vertical-align:middle\"">---朋友"",""<img src=\""../../test_img/19.png\"" width=150 style=\""vertical-align:middle\"">---自我"",""<img src=\""../../test_img/12.png\"" width=150 style=\""vertical-align:middle\"">---生人""]","","",""
"","","","","","html-keyboard-response","16","245239","0.0-7.0-0.0-1.2","null","<span class='add_' style='color:yellow; font-size: 70px;'> 太慢! </span>","null","","","","","","","","","","","","","","","","","","","","","","","","","feedback_test","",""
"","","","","","psychophysics","17","247759","0.0-7.0-0.0-0.3","null","","null","","","","","","","","","","","","","key","null","16.671812080536952","720","446","arrowleft","false","../../test_img/25.png","生人","prac_matching_task","朋友","[""<img src=\""../../test_img/25.png\"" width=150 style=\""vertical-align:middle\"">---朋友"",""<img src=\""../../test_img/19.png\"" width=150 style=\""vertical-align:middle\"">---自我"",""<img src=\""../../test_img/12.png\"" width=150 style=\""vertical-align:middle\"">---生人""]","","",""
"","","","","","html-keyboard-response","18","248069","0.0-7.0-0.0-1.3","null","<span class='add_' style='color:yellow; font-size: 70px;'> 太慢! </span>","null","","","","","","","","","","","","","","","","","","","","","","","","","feedback_test","",""
"","","","","","psychophysics","19","250589","0.0-7.0-0.0-0.4","null","","null","","","","","","","","","","","","","key","null","16.671140939597315","720","446","arrowright","false","../../test_img/19.png","自我","prac_matching_task","自我","[""<img src=\""../../test_img/25.png\"" width=150 style=\""vertical-align:middle\"">---朋友"",""<img src=\""../../test_img/19.png\"" width=150 style=\""vertical-align:middle\"">---自我"",""<img src=\""../../test_img/12.png\"" width=150 style=\""vertical-align:middle\"">---生人""]","","",""
"","","","","","html-keyboard-response","20","250896","0.0-7.0-0.0-1.4","null","<span class='add_' style='color:yellow; font-size: 70px;'> 太慢! </span>","null","","","","","","","","","","","","","","","","","","","","","","","","","feedback_test","",""
"","","","","","psychophysics","21","253407","0.0-7.0-0.0-0.5","null","","null","","","","","","","","","","","","","key","null","16.671621621621583","720","446","arrowright","false","../../test_img/12.png","生人","prac_matching_task","生人","[""<img src=\""../../test_img/25.png\"" width=150 style=\""vertical-align:middle\"">---朋友"",""<img src=\""../../test_img/19.png\"" width=150 style=\""vertical-align:middle\"">---自我"",""<img src=\""../../test_img/12.png\"" width=150 style=\""vertical-align:middle\"">---生人""]","","",""
"","","","","","html-keyboard-response","22","253718","0.0-7.0-0.0-1.5","null","<span class='add_' style='color:yellow; font-size: 70px;'> 太慢! </span>","null","","","","","","","","","","","","","","","","","","","","","","","","","feedback_test","",""
"","","","","","psychophysics","23","256229","0.0-7.0-0.0-0.6","null","","null","","","","","","","","","","","","","key","null","16.671449664429545","720","446","arrowleft","false","../../test_img/12.png","朋友","prac_matching_task","生人","[""<img src=\""../../test_img/25.png\"" width=150 style=\""vertical-align:middle\"">---朋友"",""<img src=\""../../test_img/19.png\"" width=150 style=\""vertical-align:middle\"">---自我"",""<img src=\""../../test_img/12.png\"" width=150 style=\""vertical-align:middle\"">---生人""]","","",""
"","","","","","html-keyboard-response","24","256544","0.0-7.0-0.0-1.6","null","<span class='add_' style='color:yellow; font-size: 70px;'> 太慢! </span>","null","","","","","","","","","","","","","","","","","","","","","","","","","feedback_test","",""
"","","","","","psychophysics","25","259046","0.0-7.0-0.0-0.7","null","","null","","","","","","","","","","","","","key","null","16.671812080536757","720","446","arrowleft","false","../../test_img/19.png","朋友","prac_matching_task","自我","[""<img src=\""../../test_img/25.png\"" width=150 style=\""vertical-align:middle\"">---朋友"",""<img src=\""../../test_img/19.png\"" width=150 style=\""vertical-align:middle\"">---自我"",""<img src=\""../../test_img/12.png\"" width=150 style=\""vertical-align:middle\"">---生人""]","","",""
"","","","","","html-keyboard-response","26","259357","0.0-7.0-0.0-1.7","null","<span class='add_' style='color:yellow; font-size: 70px;'> 太慢! </span>","null","","","","","","","","","","","","","","","","","","","","","","","","","feedback_test","",""
"","","","","","psychophysics","27","261880","0.0-7.0-0.0-0.8","null","","null","","","","","","","","","","","","","key","null","16.67133333333341","720","446","arrowleft","false","../../test_img/12.png","自我","prac_matching_task","生人","[""<img src=\""../../test_img/25.png\"" width=150 style=\""vertical-align:middle\"">---朋友"",""<img src=\""../../test_img/19.png\"" width=150 style=\""vertical-align:middle\"">---自我"",""<img src=\""../../test_img/12.png\"" width=150 style=\""vertical-align:middle\"">---生人""]","","",""
"","","","","","html-keyboard-response","28","262191","0.0-7.0-0.0-1.8","null","<span class='add_' style='color:yellow; font-size: 70px;'> 太慢! </span>","null","","","","","","","","","","","","","","","","","","","","","","","","","feedback_test","",""
"","","","","","psychophysics","29","263461","0.0-7.0-0.0-0.9","267","","arrowright","","","","","","","","","","","","","key","arrowright","16.671621621620993","720","446","arrowright","true","../../test_img/25.png","朋友","prac_matching_task","朋友","[""<img src=\""../../test_img/25.png\"" width=150 style=\""vertical-align:middle\"">---朋友"",""<img src=\""../../test_img/19.png\"" width=150 style=\""vertical-align:middle\"">---自我"",""<img src=\""../../test_img/12.png\"" width=150 style=\""vertical-align:middle\"">---生人""]","","",""
"","","","","","html-keyboard-response","30","263768","0.0-7.0-0.0-1.9","null","<span style='color:GreenYellow; font-size: 70px;'>正确! </span>","null","","","","","","","","","","","","","","","","","","","","","","","","","feedback_test","",""
"","","","","","psychophysics","31","266281","0.0-7.0-0.0-0.10","null","","null","","","","","","","","","","","","","key","null","16.671812080536757","720","446","arrowright","false","../../test_img/25.png","朋友","prac_matching_task","朋友","[""<img src=\""../../test_img/25.png\"" width=150 style=\""vertical-align:middle\"">---朋友"",""<img src=\""../../test_img/19.png\"" width=150 style=\""vertical-align:middle\"">---自我"",""<img src=\""../../test_img/12.png\"" width=150 style=\""vertical-align:middle\"">---生人""]","","",""
"","","","","","html-keyboard-response","32","266594","0.0-7.0-0.0-1.10","null","<span class='add_' style='color:yellow; font-size: 70px;'> 太慢! </span>","null","","","","","","","","","","","","","","","","","","","","","","","","","feedback_test","",""
"","","","","","psychophysics","33","269098","0.0-7.0-0.0-0.11","null","","null","","","","","","","","","","","","","key","null","16.671621621621778","720","446","arrowright","false","../../test_img/19.png","自我","prac_matching_task","自我","[""<img src=\""../../test_img/25.png\"" width=150 style=\""vertical-align:middle\"">---朋友"",""<img src=\""../../test_img/19.png\"" width=150 style=\""vertical-align:middle\"">---自我"",""<img src=\""../../test_img/12.png\"" width=150 style=\""vertical-align:middle\"">---生人""]","","",""
"","","","","","html-keyboard-response","34","269412","0.0-7.0-0.0-1.11","null","<span class='add_' style='color:yellow; font-size: 70px;'> 太慢! </span>","null","","","","","","","","","","","","","","","","","","","","","","","","","feedback_test","",""
"","","","","","psychophysics","35","270876","0.0-7.0-0.0-0.12","461","","arrowright","","","","","","","","","","","","","key","arrowright","16.670930232558273","720","446","arrowright","true","../../test_img/25.png","朋友","prac_matching_task","朋友","[""<img src=\""../../test_img/25.png\"" width=150 style=\""vertical-align:middle\"">---朋友"",""<img src=\""../../test_img/19.png\"" width=150 style=\""vertical-align:middle\"">---自我"",""<img src=\""../../test_img/12.png\"" width=150 style=\""vertical-align:middle\"">---生人""]","","",""
"","","","","","html-keyboard-response","36","271186","0.0-7.0-0.0-1.12","null","<span style='color:GreenYellow; font-size: 70px;'>正确! </span>","null","","","","","","","","","","","","","","","","","","","","","","","","","feedback_test","",""
"","","","","","psychophysics","37","272742","0.0-7.0-0.0-0.13","550","","arrowleft","","","","","","","","","","","","","key","arrowleft","16.671428571428315","720","446","arrowright","false","../../test_img/12.png","生人","prac_matching_task","生人","[""<img src=\""../../test_img/25.png\"" width=150 style=\""vertical-align:middle\"">---朋友"",""<img src=\""../../test_img/19.png\"" width=150 style=\""vertical-align:middle\"">---自我"",""<img src=\""../../test_img/12.png\"" width=150 style=\""vertical-align:middle\"">---生人""]","","",""
"","","","","","html-keyboard-response","38","273057","0.0-7.0-0.0-1.13","null","<span style='color:red; font-size: 70px;'>错误! </span>","null","","","","","","","","","","","","","","","","","","","","","","","","","feedback_test","",""
"","","","","","psychophysics","39","275569","0.0-7.0-0.0-0.14","null","","null","","","","","","","","","","","","","key","null","16.670973333333386","720","446","arrowleft","false","../../test_img/25.png","自我","prac_matching_task","朋友","[""<img src=\""../../test_img/25.png\"" width=150 style=\""vertical-align:middle\"">---朋友"",""<img src=\""../../test_img/19.png\"" width=150 style=\""vertical-align:middle\"">---自我"",""<img src=\""../../test_img/12.png\"" width=150 style=\""vertical-align:middle\"">---生人""]","","",""
"","","","","","html-keyboard-response","40","275871","0.0-7.0-0.0-1.14","null","<span class='add_' style='color:yellow; font-size: 70px;'> 太慢! </span>","null","","","","","","","","","","","","","","","","","","","","","","","","","feedback_test","",""
"","","","","","psychophysics","41","278377","0.0-7.0-0.0-0.15","null","","null","","","","","","","","","","","","","key","null","16.671812080536757","720","446","arrowleft","false","../../test_img/25.png","生人","prac_matching_task","朋友","[""<img src=\""../../test_img/25.png\"" width=150 style=\""vertical-align:middle\"">---朋友"",""<img src=\""../../test_img/19.png\"" width=150 style=\""vertical-align:middle\"">---自我"",""<img src=\""../../test_img/12.png\"" width=150 style=\""vertical-align:middle\"">---生人""]","","",""
"","","","","","html-keyboard-response","42","278684","0.0-7.0-0.0-1.15","null","<span class='add_' style='color:yellow; font-size: 70px;'> 太慢! </span>","null","","","","","","","","","","","","","","","","","","","","","","","","","feedback_test","",""
"","","","","","psychophysics","43","281201","0.0-7.0-0.0-0.16","null","","null","","","","","","","","","","","","","key","null","16.670945945945867","720","446","arrowleft","false","../../test_img/19.png","生人","prac_matching_task","自我","[""<img src=\""../../test_img/25.png\"" width=150 style=\""vertical-align:middle\"">---朋友"",""<img src=\""../../test_img/19.png\"" width=150 style=\""vertical-align:middle\"">---自我"",""<img src=\""../../test_img/12.png\"" width=150 style=\""vertical-align:middle\"">---生人""]","","",""
"","","","","","html-keyboard-response","44","281516","0.0-7.0-0.0-1.16","null","<span class='add_' style='color:yellow; font-size: 70px;'> 太慢! </span>","null","","","","","","","","","","","","","","","","","","","","","","","","","feedback_test","",""
"","","","","","psychophysics","45","284035","0.0-7.0-0.0-0.17","null","","null","","","","","","","","","","","","","key","null","16.663087248322068","720","446","arrowleft","false","../../test_img/19.png","朋友","prac_matching_task","自我","[""<img src=\""../../test_img/25.png\"" width=150 style=\""vertical-align:middle\"">---朋友"",""<img src=\""../../test_img/19.png\"" width=150 style=\""vertical-align:middle\"">---自我"",""<img src=\""../../test_img/12.png\"" width=150 style=\""vertical-align:middle\"">---生人""]","","",""
"","","","","","html-keyboard-response","46","284347","0.0-7.0-0.0-1.17","null","<span class='add_' style='color:yellow; font-size: 70px;'> 太慢! </span>","null","","","","","","","","","","","","","","","","","","","","","","","","","feedback_test","",""
"","","","","","psychophysics","47","286870","0.0-7.0-0.0-0.18","null","","null","","","","","","","","","","","","","key","null","16.670973333333386","720","446","arrowright","false","../../test_img/19.png","自我","prac_matching_task","自我","[""<img src=\""../../test_img/25.png\"" width=150 style=\""vertical-align:middle\"">---朋友"",""<img src=\""../../test_img/19.png\"" width=150 style=\""vertical-align:middle\"">---自我"",""<img src=\""../../test_img/12.png\"" width=150 style=\""vertical-align:middle\"">---生人""]","","",""
"","","","","","html-keyboard-response","48","287181","0.0-7.0-0.0-1.18","null","<span class='add_' style='color:yellow; font-size: 70px;'> 太慢! </span>","null","","","","","","","","","","","","","","","","","","","","","","","","","feedback_test","",""
"","","","","","psychophysics","49","289690","0.0-7.0-0.0-0.19","null","","null","","","","","","","","","","","","","key","null","16.671812080537148","720","446","arrowleft","false","../../test_img/12.png","自我","prac_matching_task","生人","[""<img src=\""../../test_img/25.png\"" width=150 style=\""vertical-align:middle\"">---朋友"",""<img src=\""../../test_img/19.png\"" width=150 style=\""vertical-align:middle\"">---自我"",""<img src=\""../../test_img/12.png\"" width=150 style=\""vertical-align:middle\"">---生人""]","","",""
"","","","","","html-keyboard-response","50","289992","0.0-7.0-0.0-1.19","null","<span class='add_' style='color:yellow; font-size: 70px;'> 太慢! </span>","null","","","","","","","","","","","","","","","","","","","","","","","","","feedback_test","",""
"","","","","","psychophysics","51","292504","0.0-7.0-0.0-0.20","null","","null","","","","","","","","","","","","","key","null","16.67248322147659","720","446","arrowleft","false","../../test_img/12.png","朋友","prac_matching_task","生人","[""<img src=\""../../test_img/25.png\"" width=150 style=\""vertical-align:middle\"">---朋友"",""<img src=\""../../test_img/19.png\"" width=150 style=\""vertical-align:middle\"">---自我"",""<img src=\""../../test_img/12.png\"" width=150 style=\""vertical-align:middle\"">---生人""]","","",""
"","","","","","html-keyboard-response","52","292817","0.0-7.0-0.0-1.20","null","<span class='add_' style='color:yellow; font-size: 70px;'> 太慢! </span>","null","","","","","","","","","","","","","","","","","","","","","","","","","feedback_test","",""
"","","","","","psychophysics","53","295330","0.0-7.0-0.0-0.21","null","","null","","","","","","","","","","","","","key","null","16.663087248322068","720","446","arrowright","false","../../test_img/12.png","生人","prac_matching_task","生人","[""<img src=\""../../test_img/25.png\"" width=150 style=\""vertical-align:middle\"">---朋友"",""<img src=\""../../test_img/19.png\"" width=150 style=\""vertical-align:middle\"">---自我"",""<img src=\""../../test_img/12.png\"" width=150 style=\""vertical-align:middle\"">---生人""]","","",""
"","","","","","html-keyboard-response","54","295639","0.0-7.0-0.0-1.21","null","<span class='add_' style='color:yellow; font-size: 70px;'> 太慢! </span>","null","","","","","","","","","","","","","","","","","","","","","","","","","feedback_test","",""
"","","","","","psychophysics","55","298156","0.0-7.0-0.0-0.22","null","","null","","","","","","","","","","","","","key","null","16.6706666666669","720","446","arrowright","false","../../test_img/25.png","朋友","prac_matching_task","朋友","[""<img src=\""../../test_img/25.png\"" width=150 style=\""vertical-align:middle\"">---朋友"",""<img src=\""../../test_img/19.png\"" width=150 style=\""vertical-align:middle\"">---自我"",""<img src=\""../../test_img/12.png\"" width=150 style=\""vertical-align:middle\"">---生人""]","","",""
"","","","","","html-keyboard-response","56","298465","0.0-7.0-0.0-1.22","null","<span class='add_' style='color:yellow; font-size: 70px;'> 太慢! </span>","null","","","","","","","","","","","","","","","","","","","","","","","","","feedback_test","",""
"","","","","","psychophysics","57","299917","0.0-7.0-0.0-0.23","444","","arrowright","","","","","","","","","","","","","key","arrowright","16.67058823529412","720","446","arrowright","true","../../test_img/19.png","自我","prac_matching_task","自我","[""<img src=\""../../test_img/25.png\"" width=150 style=\""vertical-align:middle\"">---朋友"",""<img src=\""../../test_img/19.png\"" width=150 style=\""vertical-align:middle\"">---自我"",""<img src=\""../../test_img/12.png\"" width=150 style=\""vertical-align:middle\"">---生人""]","","",""
"","","","","","html-keyboard-response","58","300231","0.0-7.0-0.0-1.23","null","<span style='color:GreenYellow; font-size: 70px;'>正确! </span>","null","","","","","","","","","","","","","","","","","","","","","","","","","feedback_test","",""
"","","","","","html-keyboard-response","59","305746","0.0-7.0-1.0-0.0","5511","<style>.context{color:white; font-size: 35px; line-height:40px}</style>                          <div><p class='context'>您正确回答了13% 的试次。</p ><p class='context'>您的平均反应时为391毫秒。</p >"," ","","","","","","","","","","","","","","","","","","","","","","","","","","",""
"","","","","","instructions","60","378214","0.0-7.0-1.0-1.0","72465","","","","","","","","","","","","","","[{""page_index"":0,""viewing_time"":2958},{""page_index"":1,""viewing_time"":64440},{""page_index"":2,""viewing_time"":3946},{""page_index"":3,""viewing_time"":1120}]","","","","","","","","","","","","","","",""
"","","","","","psychophysics","61","379553","0.0-7.1-0.1-0.24","337","","arrowright","","","","","","","","","","","","","key","arrowright","16.669230769230918","720","446","arrowleft","false","../../test_img/12.png","朋友","prac_matching_task","生人","[""<img src=\""../../test_img/25.png\"" width=150 style=\""vertical-align:middle\"">---朋友"",""<img src=\""../../test_img/19.png\"" width=150 style=\""vertical-align:middle\"">---自我"",""<img src=\""../../test_img/12.png\"" width=150 style=\""vertical-align:middle\"">---生人""]","","",""
"","","","","","html-keyboard-response","62","379860","0.0-7.1-0.1-1.24","null","<span style='color:red; font-size: 70px;'>错误! </span>","null","","","","","","","","","","","","","","","","","","","","","","","","","feedback_test","",""
"","","","","","psychophysics","63","382378","0.0-7.1-0.1-0.25","null","","null","","","","","","","","","","","","","key","null","16.671999999999922","720","446","arrowleft","false","../../test_img/19.png","生人","prac_matching_task","自我","[""<img src=\""../../test_img/25.png\"" width=150 style=\""vertical-align:middle\"">---朋友"",""<img src=\""../../test_img/19.png\"" width=150 style=\""vertical-align:middle\"">---自我"",""<img src=\""../../test_img/12.png\"" width=150 style=\""vertical-align:middle\"">---生人""]","","",""
"","","","","","html-keyboard-response","64","382694","0.0-7.1-0.1-1.25","null","<span class='add_' style='color:yellow; font-size: 70px;'> 太慢! </span>","null","","","","","","","","","","","","","","","","","","","","","","","","","feedback_test","",""
"","","","","","psychophysics","65","384119","0.0-7.1-0.1-0.26","423","","arrowright","","","","","","","","","","","","","key","arrowright","16.670238095237956","720","446","arrowright","true","../../test_img/19.png","自我","prac_matching_task","自我","[""<img src=\""../../test_img/25.png\"" width=150 style=\""vertical-align:middle\"">---朋友"",""<img src=\""../../test_img/19.png\"" width=150 style=\""vertical-align:middle\"">---自我"",""<img src=\""../../test_img/12.png\"" width=150 style=\""vertical-align:middle\"">---生人""]","","",""
"","","","","","html-keyboard-response","66","384428","0.0-7.1-0.1-1.26","null","<span style='color:GreenYellow; font-size: 70px;'>正确! </span>","null","","","","","","","","","","","","","","","","","","","","","","","","","feedback_test","",""
"","","","","","psychophysics","67","386006","0.0-7.1-0.1-0.27","575","","arrowleft","","","","","","","","","","","","","key","arrowleft","16.673118279570268","720","446","arrowleft","true","../../test_img/25.png","生人","prac_matching_task","朋友","[""<img src=\""../../test_img/25.png\"" width=150 style=\""vertical-align:middle\"">---朋友"",""<img src=\""../../test_img/19.png\"" width=150 style=\""vertical-align:middle\"">---自我"",""<img src=\""../../test_img/12.png\"" width=150 style=\""vertical-align:middle\"">---生人""]","","",""
"","","","","","html-keyboard-response","68","386313","0.0-7.1-0.1-1.27","null","<span style='color:GreenYellow; font-size: 70px;'>正确! </span>","null","","","","","","","","","","","","","","","","","","","","","","","","","feedback_test","",""
"","","","","","psychophysics","69","387806","0.0-7.1-0.1-0.28","478","","arrowright","","","","","","","","","","","","","key","arrowright","16.668965517241514","720","446","arrowright","true","../../test_img/12.png","生人","prac_matching_task","生人","[""<img src=\""../../test_img/25.png\"" width=150 style=\""vertical-align:middle\"">---朋友"",""<img src=\""../../test_img/19.png\"" width=150 style=\""vertical-align:middle\"">---自我"",""<img src=\""../../test_img/12.png\"" width=150 style=\""vertical-align:middle\"">---生人""]","","",""
"","","","","","html-keyboard-response","70","388120","0.0-7.1-0.1-1.28","null","<span style='color:GreenYellow; font-size: 70px;'>正确! </span>","null","","","","","","","","","","","","","","","","","","","","","","","","","feedback_test","",""
"","","","","","psychophysics","71","390177","0.0-7.1-0.1-0.29","1049","","arrowleft","","","","","","","","","","","","","key","arrowleft","16.67295081967194","720","446","arrowleft","true","../../test_img/19.png","朋友","prac_matching_task","自我","[""<img src=\""../../test_img/25.png\"" width=150 style=\""vertical-align:middle\"">---朋友"",""<img src=\""../../test_img/19.png\"" width=150 style=\""vertical-align:middle\"">---自我"",""<img src=\""../../test_img/12.png\"" width=150 style=\""vertical-align:middle\"">---生人""]","","",""
"","","","","","html-keyboard-response","72","390490","0.0-7.1-0.1-1.29","null","<span style='color:GreenYellow; font-size: 70px;'>正确! </span>","null","","","","","","","","","","","","","","","","","","","","","","","","","feedback_test","",""
"","","","","","psychophysics","73","392137","0.0-7.1-0.1-0.30","645","","arrowright","","","","","","","","","","","","","key","arrowright","16.67113402061892","720","446","arrowright","true","../../test_img/12.png","生人","prac_matching_task","生人","[""<img src=\""../../test_img/25.png\"" width=150 style=\""vertical-align:middle\"">---朋友"",""<img src=\""../../test_img/19.png\"" width=150 style=\""vertical-align:middle\"">---自我"",""<img src=\""../../test_img/12.png\"" width=150 style=\""vertical-align:middle\"">---生人""]","","",""
"","","","","","html-keyboard-response","74","392448","0.0-7.1-0.1-1.30","null","<span style='color:GreenYellow; font-size: 70px;'>正确! </span>","null","","","","","","","","","","","","","","","","","","","","","","","","","feedback_test","",""
"","","","","","psychophysics","75","393966","0.0-7.1-0.1-0.31","517","","arrowleft","","","","","","","","","","","","","key","arrowleft","16.66999999999987","720","446","arrowright","false","../../test_img/19.png","自我","prac_matching_task","自我","[""<img src=\""../../test_img/25.png\"" width=150 style=\""vertical-align:middle\"">---朋友"",""<img src=\""../../test_img/19.png\"" width=150 style=\""vertical-align:middle\"">---自我"",""<img src=\""../../test_img/12.png\"" width=150 style=\""vertical-align:middle\"">---生人""]","","",""
"","","","","","html-keyboard-response","76","394275","0.0-7.1-0.1-1.31","null","<span style='color:red; font-size: 70px;'>错误! </span>","null","","","","","","","","","","","","","","","","","","","","","","","","","feedback_test","",""
"","","","","","psychophysics","77","396248","0.0-7.1-0.1-0.32","967","","arrowright","","","","","","","","","","","","","key","arrowright","16.673275862068763","720","446","arrowright","true","../../test_img/25.png","朋友","prac_matching_task","朋友","[""<img src=\""../../test_img/25.png\"" width=150 style=\""vertical-align:middle\"">---朋友"",""<img src=\""../../test_img/19.png\"" width=150 style=\""vertical-align:middle\"">---自我"",""<img src=\""../../test_img/12.png\"" width=150 style=\""vertical-align:middle\"">---生人""]","","",""
"","","","","","html-keyboard-response","78","396562","0.0-7.1-0.1-1.32","null","<span style='color:GreenYellow; font-size: 70px;'>正确! </span>","null","","","","","","","","","","","","","","","","","","","","","","","","","feedback_test","",""
"","","","","","psychophysics","79","398216","0.0-7.1-0.1-0.33","649","","arrowright","","","","","","","","","","","","","key","arrowright","16.671134020618318","720","446","arrowright","true","../../test_img/25.png","朋友","prac_matching_task","朋友","[""<img src=\""../../test_img/25.png\"" width=150 style=\""vertical-align:middle\"">---朋友"",""<img src=\""../../test_img/19.png\"" width=150 style=\""vertical-align:middle\"">---自我"",""<img src=\""../../test_img/12.png\"" width=150 style=\""vertical-align:middle\"">---生人""]","","",""
"","","","","","html-keyboard-response","80","398527","0.0-7.1-0.1-1.33","null","<span style='color:GreenYellow; font-size: 70px;'>正确! </span>","null","","","","","","","","","","","","","","","","","","","","","","","","","feedback_test","",""
"","","","","","psychophysics","81","399995","0.0-7.1-0.1-0.34","462","","arrowright","","","","","","","","","","","","","key","arrowright","16.67126436781569","720","446","arrowleft","false","../../test_img/25.png","自我","prac_matching_task","朋友","[""<img src=\""../../test_img/25.png\"" width=150 style=\""vertical-align:middle\"">---朋友"",""<img src=\""../../test_img/19.png\"" width=150 style=\""vertical-align:middle\"">---自我"",""<img src=\""../../test_img/12.png\"" width=150 style=\""vertical-align:middle\"">---生人""]","","",""
"","","","","","html-keyboard-response","82","400300","0.0-7.1-0.1-1.34","null","<span style='color:red; font-size: 70px;'>错误! </span>","null","","","","","","","","","","","","","","","","","","","","","","","","","feedback_test","",""
"","","","","","psychophysics","83","402458","0.0-7.1-0.1-0.35","1156","","arrowleft","","","","","","","","","","","","","key","arrowleft","16.66953125000009","720","446","arrowleft","true","../../test_img/12.png","自我","prac_matching_task","生人","[""<img src=\""../../test_img/25.png\"" width=150 style=\""vertical-align:middle\"">---朋友"",""<img src=\""../../test_img/19.png\"" width=150 style=\""vertical-align:middle\"">---自我"",""<img src=\""../../test_img/12.png\"" width=150 style=\""vertical-align:middle\"">---生人""]","","",""
"","","","","","html-keyboard-response","84","402767","0.0-7.1-0.1-1.35","null","<span style='color:GreenYellow; font-size: 70px;'>正确! </span>","null","","","","","","","","","","","","","","","","","","","","","","","","","feedback_test","",""
"","","","","","psychophysics","85","404576","0.0-7.1-0.1-0.36","805","","arrowright","","","","","","","","","","","","","key","arrowright","16.671962616822647","720","446","arrowleft","false","../../test_img/25.png","生人","prac_matching_task","朋友","[""<img src=\""../../test_img/25.png\"" width=150 style=\""vertical-align:middle\"">---朋友"",""<img src=\""../../test_img/19.png\"" width=150 style=\""vertical-align:middle\"">---自我"",""<img src=\""../../test_img/12.png\"" width=150 style=\""vertical-align:middle\"">---生人""]","","",""
"","","","","","html-keyboard-response","86","404893","0.0-7.1-0.1-1.36","null","<span style='color:red; font-size: 70px;'>错误! </span>","null","","","","","","","","","","","","","","","","","","","","","","","","","feedback_test","",""
"","","","","","psychophysics","87","406713","0.0-7.1-0.1-0.37","813","","arrowright","","","","","","","","","","","","","key","arrowright","16.672648148148223","720","446","arrowright","true","../../test_img/25.png","朋友","prac_matching_task","朋友","[""<img src=\""../../test_img/25.png\"" width=150 style=\""vertical-align:middle\"">---朋友"",""<img src=\""../../test_img/19.png\"" width=150 style=\""vertical-align:middle\"">---自我"",""<img src=\""../../test_img/12.png\"" width=150 style=\""vertical-align:middle\"">---生人""]","","",""
"","","","","","html-keyboard-response","88","407025","0.0-7.1-0.1-1.37","null","<span style='color:GreenYellow; font-size: 70px;'>正确! </span>","null","","","","","","","","","","","","","","","","","","","","","","","","","feedback_test","",""
"","","","","","psychophysics","89","409029","0.0-7.1-0.1-0.38","1002","","arrowright","","","","","","","","","","","","","key","arrowright","16.67033898305065","720","446","arrowleft","false","../../test_img/25.png","自我","prac_matching_task","朋友","[""<img src=\""../../test_img/25.png\"" width=150 style=\""vertical-align:middle\"">---朋友"",""<img src=\""../../test_img/19.png\"" width=150 style=\""vertical-align:middle\"">---自我"",""<img src=\""../../test_img/12.png\"" width=150 style=\""vertical-align:middle\"">---生人""]","","",""
"","","","","","html-keyboard-response","90","409337","0.0-7.1-0.1-1.38","null","<span style='color:red; font-size: 70px;'>错误! </span>","null","","","","","","","","","","","","","","","","","","","","","","","","","feedback_test","",""
"","","","","","psychophysics","91","411124","0.0-7.1-0.1-0.39","785","","arrowleft","","","","","","","","","","","","","key","arrowleft","16.669811320754718","720","446","arrowleft","true","../../test_img/19.png","生人","prac_matching_task","自我","[""<img src=\""../../test_img/25.png\"" width=150 style=\""vertical-align:middle\"">---朋友"",""<img src=\""../../test_img/19.png\"" width=150 style=\""vertical-align:middle\"">---自我"",""<img src=\""../../test_img/12.png\"" width=150 style=\""vertical-align:middle\"">---生人""]","","",""
"","","","","","html-keyboard-response","92","411427","0.0-7.1-0.1-1.39","null","<span style='color:GreenYellow; font-size: 70px;'>正确! </span>","null","","","","","","","","","","","","","","","","","","","","","","","","","feedback_test","",""
"","","","","","psychophysics","93","413109","0.0-7.1-0.1-0.40","676","","arrowright","","","","","","","","","","","","","key","arrowright","16.671717171717173","720","446","arrowright","true","../../test_img/25.png","朋友","prac_matching_task","朋友","[""<img src=\""../../test_img/25.png\"" width=150 style=\""vertical-align:middle\"">---朋友"",""<img src=\""../../test_img/19.png\"" width=150 style=\""vertical-align:middle\"">---自我"",""<img src=\""../../test_img/12.png\"" width=150 style=\""vertical-align:middle\"">---生人""]","","",""
"","","","","","html-keyboard-response","94","413419","0.0-7.1-0.1-1.40","null","<span style='color:GreenYellow; font-size: 70px;'>正确! </span>","null","","","","","","","","","","","","","","","","","","","","","","","","","feedback_test","",""
"","","","","","psychophysics","95","415087","0.0-7.1-0.1-0.41","664","","arrowright","","","","","","","","","","","","","key","arrowright","16.670408163265424","720","446","arrowright","true","../../test_img/19.png","自我","prac_matching_task","自我","[""<img src=\""../../test_img/25.png\"" width=150 style=\""vertical-align:middle\"">---朋友"",""<img src=\""../../test_img/19.png\"" width=150 style=\""vertical-align:middle\"">---自我"",""<img src=\""../../test_img/12.png\"" width=150 style=\""vertical-align:middle\"">---生人""]","","",""
"","","","","","html-keyboard-response","96","415397","0.0-7.1-0.1-1.41","null","<span style='color:GreenYellow; font-size: 70px;'>正确! </span>","null","","","","","","","","","","","","","","","","","","","","","","","","","feedback_test","",""
"","","","","","psychophysics","97","416772","0.0-7.1-0.1-0.42","368","","arrowleft","","","","","","","","","","","","","key","arrowleft","16.666666666666668","720","446","arrowleft","true","../../test_img/12.png","自我","prac_matching_task","生人","[""<img src=\""../../test_img/25.png\"" width=150 style=\""vertical-align:middle\"">---朋友"",""<img src=\""../../test_img/19.png\"" width=150 style=\""vertical-align:middle\"">---自我"",""<img src=\""../../test_img/12.png\"" width=150 style=\""vertical-align:middle\"">---生人""]","","",""
"","","","","","html-keyboard-response","98","417086","0.0-7.1-0.1-1.42","null","<span style='color:GreenYellow; font-size: 70px;'>正确! </span>","null","","","","","","","","","","","","","","","","","","","","","","","","","feedback_test","",""
"","","","","","psychophysics","99","419327","0.0-7.1-0.1-0.43","1235","","arrowleft","","","","","","","","","","","","","key","arrowleft","16.671428571428486","720","446","arrowleft","true","../../test_img/19.png","朋友","prac_matching_task","自我","[""<img src=\""../../test_img/25.png\"" width=150 style=\""vertical-align:middle\"">---朋友"",""<img src=\""../../test_img/19.png\"" width=150 style=\""vertical-align:middle\"">---自我"",""<img src=\""../../test_img/12.png\"" width=150 style=\""vertical-align:middle\"">---生人""]","","",""
"","","","","","html-keyboard-response","100","419643","0.0-7.1-0.1-1.43","null","<span style='color:GreenYellow; font-size: 70px;'>正确! </span>","null","","","","","","","","","","","","","","","","","","","","","","","","","feedback_test","",""
"","","","","","psychophysics","101","421594","0.0-7.1-0.1-0.44","946","","arrowright","","","","","","","","","","","","","key","arrowright","16.67241379310345","720","446","arrowright","true","../../test_img/12.png","生人","prac_matching_task","生人","[""<img src=\""../../test_img/25.png\"" width=150 style=\""vertical-align:middle\"">---朋友"",""<img src=\""../../test_img/19.png\"" width=150 style=\""vertical-align:middle\"">---自我"",""<img src=\""../../test_img/12.png\"" width=150 style=\""vertical-align:middle\"">---生人""]","","",""
"","","","","","html-keyboard-response","102","421895","0.0-7.1-0.1-1.44","null","<span style='color:GreenYellow; font-size: 70px;'>正确! </span>","null","","","","","","","","","","","","","","","","","","","","","","","","","feedback_test","",""
"","","","","","psychophysics","103","423675","0.0-7.1-0.1-0.45","777","","arrowright","","","","","","","","","","","","","key","arrowright","16.670754716980912","720","446","arrowright","true","../../test_img/19.png","自我","prac_matching_task","自我","[""<img src=\""../../test_img/25.png\"" width=150 style=\""vertical-align:middle\"">---朋友"",""<img src=\""../../test_img/19.png\"" width=150 style=\""vertical-align:middle\"">---自我"",""<img src=\""../../test_img/12.png\"" width=150 style=\""vertical-align:middle\"">---生人""]","","",""
"","","","","","html-keyboard-response","104","423992","0.0-7.1-0.1-1.45","null","<span style='color:GreenYellow; font-size: 70px;'>正确! </span>","null","","","","","","","","","","","","","","","","","","","","","","","","","feedback_test","",""
"","","","","","psychophysics","105","425733","0.0-7.1-0.1-0.46","727","","arrowleft","","","","","","","","","","","","","key","arrowleft","16.671844660193724","720","446","arrowleft","true","../../test_img/12.png","朋友","prac_matching_task","生人","[""<img src=\""../../test_img/25.png\"" width=150 style=\""vertical-align:middle\"">---朋友"",""<img src=\""../../test_img/19.png\"" width=150 style=\""vertical-align:middle\"">---自我"",""<img src=\""../../test_img/12.png\"" width=150 style=\""vertical-align:middle\"">---生人""]","","",""
"","","","","","html-keyboard-response","106","426039","0.0-7.1-0.1-1.46","null","<span style='color:GreenYellow; font-size: 70px;'>正确! </span>","null","","","","","","","","","","","","","","","","","","","","","","","","","feedback_test","",""
"","","","","","psychophysics","107","427849","0.0-7.1-0.1-0.47","808","","arrowright","","","","","","","","","","","","","key","arrowright","16.673831775700716","720","446","arrowright","true","../../test_img/12.png","生人","prac_matching_task","生人","[""<img src=\""../../test_img/25.png\"" width=150 style=\""vertical-align:middle\"">---朋友"",""<img src=\""../../test_img/19.png\"" width=150 style=\""vertical-align:middle\"">---自我"",""<img src=\""../../test_img/12.png\"" width=150 style=\""vertical-align:middle\"">---生人""]","","",""
"","","","","","html-keyboard-response","108","428160","0.0-7.1-0.1-1.47","null","<span style='color:GreenYellow; font-size: 70px;'>正确! </span>","null","","","","","","","","","","","","","","","","","","","","","","","","","feedback_test","",""
"","","","","","html-keyboard-response","109","455446","0.0-8.0","27283","<style>.context{color:white; font-size: 35px; line-height:40px}</style>                          <div><p class='context'>您正确回答了75% 的试次。</p ><p class='context'>您的平均反应时为763毫秒。</p ><p class='context'>恭喜您完成练习。按任意键进入知觉匹配任务正式实验。</p ><p style = 'color:lightgreen; font-size: 35px;' >正式实验与练习要求相同，请您尽可能又快又准地进行按键反应</p><p class='footer' style='font-size: 22px; line-height:40px;'>请将您右手的<span style='color: lightgreen;'>食指与无名指</span>放在电脑键盘的相应键位上进行按键。</p >","arrowright","","","","","","","","","","","","","","","","","","","","","","","","","","",""
"","","","","","psychophysics","110","457062","0.0-9.0-0.0-0.0-0.0-0.0","614","","arrowright","","","","","","","","","","","","","key","arrowright","16.66631578947356","720","446","arrowleft","false","../../test_img/12.png","自我","matching_task","生人","[""<img src=\""../../test_img/25.png\"" width=150 style=\""vertical-align:middle\"">---朋友"",""<img src=\""../../test_img/19.png\"" width=150 style=\""vertical-align:middle\"">---自我"",""<img src=\""../../test_img/12.png\"" width=150 style=\""vertical-align:middle\"">---生人""]","","",""
"","","","","","html-keyboard-response","111","457567","0.0-9.0-0.0-0.0-0.0-1.0","null","<span style='color:red; font-size: 70px;'>错误! </span>","null","","","","","","","","","","","","","","","","","","","","","","","","","feedback_test","",""
"","","","","","psychophysics","112","459396","0.0-9.0-0.0-0.0-0.0-0.1","828","","arrowright","","","","","","","","","","","","","key","arrowright","16.672222222222008","720","446","arrowright","true","../../test_img/19.png","自我","matching_task","自我","[""<img src=\""../../test_img/25.png\"" width=150 style=\""vertical-align:middle\"">---朋友"",""<img src=\""../../test_img/19.png\"" width=150 style=\""vertical-align:middle\"">---自我"",""<img src=\""../../test_img/12.png\"" width=150 style=\""vertical-align:middle\"">---生人""]","","",""
"","","","","","html-keyboard-response","113","459900","0.0-9.0-0.0-0.0-0.0-1.1","null","<span style='color:GreenYellow; font-size: 70px;'>正确! </span>","null","","","","","","","","","","","","","","","","","","","","","","","","","feedback_test","",""
"","","","","","psychophysics","114","461328","0.0-9.0-0.0-0.0-0.0-0.2","423","","arrowright","","","","","","","","","","","","","key","arrowright","16.67023809523865","720","446","arrowleft","false","../../test_img/12.png","朋友","matching_task","生人","[""<img src=\""../../test_img/25.png\"" width=150 style=\""vertical-align:middle\"">---朋友"",""<img src=\""../../test_img/19.png\"" width=150 style=\""vertical-align:middle\"">---自我"",""<img src=\""../../test_img/12.png\"" width=150 style=\""vertical-align:middle\"">---生人""]","","",""
"","","","","","html-keyboard-response","115","461842","0.0-9.0-0.0-0.0-0.0-1.2","null","<span style='color:red; font-size: 70px;'>错误! </span>","null","","","","","","","","","","","","","","","","","","","","","","","","","feedback_test","",""
"","","","","","psychophysics","116","463561","0.0-9.0-0.0-0.0-0.0-0.3","712","","arrowright","","","","","","","","","","","","","key","arrowright","16.67352941176482","720","446","arrowright","true","../../test_img/12.png","生人","matching_task","生人","[""<img src=\""../../test_img/25.png\"" width=150 style=\""vertical-align:middle\"">---朋友"",""<img src=\""../../test_img/19.png\"" width=150 style=\""vertical-align:middle\"">---自我"",""<img src=\""../../test_img/12.png\"" width=150 style=\""vertical-align:middle\"">---生人""]","","",""
"","","","","","html-keyboard-response","117","464074","0.0-9.0-0.0-0.0-0.0-1.3","null","<span style='color:GreenYellow; font-size: 70px;'>正确! </span>","null","","","","","","","","","","","","","","","","","","","","","","","","","feedback_test","",""
"","","","","","psychophysics","118","465943","0.0-9.0-0.0-0.0-0.0-0.4","864","","arrowleft","","","","","","","","","","","","","key","arrowleft","16.673459459459597","720","446","arrowleft","true","../../test_img/19.png","朋友","matching_task","自我","[""<img src=\""../../test_img/25.png\"" width=150 style=\""vertical-align:middle\"">---朋友"",""<img src=\""../../test_img/19.png\"" width=150 style=\""vertical-align:middle\"">---自我"",""<img src=\""../../test_img/12.png\"" width=150 style=\""vertical-align:middle\"">---生人""]","","",""
"","","","","","html-keyboard-response","119","466456","0.0-9.0-0.0-0.0-0.0-1.4","null","<span style='color:GreenYellow; font-size: 70px;'>正确! </span>","null","","","","","","","","","","","","","","","","","","","","","","","","","feedback_test","",""
"","","","","","psychophysics","120","468130","0.0-9.0-0.0-0.0-0.0-0.5","663","","arrowright","","","","","","","","","","","","","key","arrowright","16.6693877551024","720","446","arrowleft","false","../../test_img/25.png","生人","matching_task","朋友","[""<img src=\""../../test_img/25.png\"" width=150 style=\""vertical-align:middle\"">---朋友"",""<img src=\""../../test_img/19.png\"" width=150 style=\""vertical-align:middle\"">---自我"",""<img src=\""../../test_img/12.png\"" width=150 style=\""vertical-align:middle\"">---生人""]","","",""
"","","","","","html-keyboard-response","121","468633","0.0-9.0-0.0-0.0-0.0-1.5","null","<span style='color:red; font-size: 70px;'>错误! </span>","null","","","","","","","","","","","","","","","","","","","","","","","","","feedback_test","",""
"","","","","","psychophysics","122","470863","0.0-9.0-0.0-0.0-0.0-0.6","1228","","arrowright","","","","","","","","","","","","","key","arrowright","16.671969696969786","720","446","arrowright","true","../../test_img/19.png","自我","matching_task","自我","[""<img src=\""../../test_img/25.png\"" width=150 style=\""vertical-align:middle\"">---朋友"",""<img src=\""../../test_img/19.png\"" width=150 style=\""vertical-align:middle\"">---自我"",""<img src=\""../../test_img/12.png\"" width=150 style=\""vertical-align:middle\"">---生人""]","","",""
"","","","","","html-keyboard-response","123","471374","0.0-9.0-0.0-0.0-0.0-1.6","null","<span style='color:GreenYellow; font-size: 70px;'>正确! </span>","null","","","","","","","","","","","","","","","","","","","","","","","","","feedback_test","",""
"","","","","","psychophysics","124","473178","0.0-9.0-0.0-0.0-0.0-0.7","800","","arrowright","","","","","","","","","","","","","key","arrowright","16.671028037383067","720","446","arrowright","true","../../test_img/12.png","生人","matching_task","生人","[""<img src=\""../../test_img/25.png\"" width=150 style=\""vertical-align:middle\"">---朋友"",""<img src=\""../../test_img/19.png\"" width=150 style=\""vertical-align:middle\"">---自我"",""<img src=\""../../test_img/12.png\"" width=150 style=\""vertical-align:middle\"">---生人""]","","",""
"","","","","","html-keyboard-response","125","473690","0.0-9.0-0.0-0.0-0.0-1.7","null","<span style='color:GreenYellow; font-size: 70px;'>正确! </span>","null","","","","","","","","","","","","","","","","","","","","","","","","","feedback_test","",""
"","","","","","psychophysics","126","475635","0.0-9.0-0.0-0.0-0.0-0.8","932","","arrowleft","","","","","","","","","","","","","key","arrowleft","16.671304347826187","720","446","arrowleft","true","../../test_img/25.png","自我","matching_task","朋友","[""<img src=\""../../test_img/25.png\"" width=150 style=\""vertical-align:middle\"">---朋友"",""<img src=\""../../test_img/19.png\"" width=150 style=\""vertical-align:middle\"">---自我"",""<img src=\""../../test_img/12.png\"" width=150 style=\""vertical-align:middle\"">---生人""]","","",""
"","","","","","html-keyboard-response","127","476142","0.0-9.0-0.0-0.0-0.0-1.8","null","<span style='color:GreenYellow; font-size: 70px;'>正确! </span>","null","","","","","","","","","","","","","","","","","","","","","","","","","feedback_test","",""
"","","","","","psychophysics","128","478014","0.0-9.0-0.0-0.0-0.0-0.9","866","","arrowleft","","","","","","","","","","","","","key","arrowleft","16.672558558558382","720","446","arrowleft","true","../../test_img/19.png","生人","matching_task","自我","[""<img src=\""../../test_img/25.png\"" width=150 style=\""vertical-align:middle\"">---朋友"",""<img src=\""../../test_img/19.png\"" width=150 style=\""vertical-align:middle\"">---自我"",""<img src=\""../../test_img/12.png\"" width=150 style=\""vertical-align:middle\"">---生人""]","","",""
"","","","","","html-keyboard-response","129","478519","0.0-9.0-0.0-0.0-0.0-1.9","null","<span style='color:GreenYellow; font-size: 70px;'>正确! </span>","null","","","","","","","","","","","","","","","","","","","","","","","","","feedback_test","",""
"","","","","","psychophysics","130","481034","0.0-9.0-0.0-0.0-0.0-0.10","null","","null","","","","","","","","","","","","","key","null","16.66912751677821","720","446","arrowright","false","../../test_img/25.png","朋友","matching_task","朋友","[""<img src=\""../../test_img/25.png\"" width=150 style=\""vertical-align:middle\"">---朋友"",""<img src=\""../../test_img/19.png\"" width=150 style=\""vertical-align:middle\"">---自我"",""<img src=\""../../test_img/12.png\"" width=150 style=\""vertical-align:middle\"">---生人""]","","",""
"","","","","","html-keyboard-response","131","481543","0.0-9.0-0.0-0.0-0.0-1.10","null","<span class='add_' style='color:yellow; font-size: 70px;'> 太慢! </span>","null","","","","","","","","","","","","","","","","","","","","","","","","","feedback_test","",""
"","","","","","psychophysics","132","483236","0.0-9.0-0.0-0.0-0.0-0.11","687","","arrowright","","","","","","","","","","","","","key","arrowright","16.675","720","446","arrowright","true","../../test_img/25.png","朋友","matching_task","朋友","[""<img src=\""../../test_img/25.png\"" width=150 style=\""vertical-align:middle\"">---朋友"",""<img src=\""../../test_img/19.png\"" width=150 style=\""vertical-align:middle\"">---自我"",""<img src=\""../../test_img/12.png\"" width=150 style=\""vertical-align:middle\"">---生人""]","","",""
"","","","","","html-keyboard-response","133","483739","0.0-9.0-0.0-0.0-0.0-1.11","null","<span style='color:GreenYellow; font-size: 70px;'>正确! </span>","null","","","","","","","","","","","","","","","","","","","","","","","","","feedback_test","",""
"","","","","","psychophysics","134","485463","0.0-9.0-0.0-0.0-0.0-0.12","717","","arrowright","","","","","","","","","","","","","key","arrowright","16.66764705882387","720","446","arrowright","true","../../test_img/19.png","自我","matching_task","自我","[""<img src=\""../../test_img/25.png\"" width=150 style=\""vertical-align:middle\"">---朋友"",""<img src=\""../../test_img/19.png\"" width=150 style=\""vertical-align:middle\"">---自我"",""<img src=\""../../test_img/12.png\"" width=150 style=\""vertical-align:middle\"">---生人""]","","",""
"","","","","","html-keyboard-response","135","485967","0.0-9.0-0.0-0.0-0.0-1.12","null","<span style='color:GreenYellow; font-size: 70px;'>正确! </span>","null","","","","","","","","","","","","","","","","","","","","","","","","","feedback_test","",""
"","","","","","psychophysics","136","487813","0.0-9.0-0.0-0.0-0.0-0.13","841","","arrowright","","","","","","","","","","","","","key","arrowright","16.671818181817866","720","446","arrowright","true","../../test_img/19.png","自我","matching_task","自我","[""<img src=\""../../test_img/25.png\"" width=150 style=\""vertical-align:middle\"">---朋友"",""<img src=\""../../test_img/19.png\"" width=150 style=\""vertical-align:middle\"">---自我"",""<img src=\""../../test_img/12.png\"" width=150 style=\""vertical-align:middle\"">---生人""]","","",""
"","","","","","html-keyboard-response","137","488329","0.0-9.0-0.0-0.0-0.0-1.13","null","<span style='color:GreenYellow; font-size: 70px;'>正确! </span>","null","","","","","","","","","","","","","","","","","","","","","","","","","feedback_test","",""
"","","","","","psychophysics","138","490176","0.0-9.0-0.0-0.0-0.0-0.14","843","","arrowleft","","","","","","","","","","","","","key","arrowleft","16.672477064220075","720","446","arrowleft","true","../../test_img/25.png","生人","matching_task","朋友","[""<img src=\""../../test_img/25.png\"" width=150 style=\""vertical-align:middle\"">---朋友"",""<img src=\""../../test_img/19.png\"" width=150 style=\""vertical-align:middle\"">---自我"",""<img src=\""../../test_img/12.png\"" width=150 style=\""vertical-align:middle\"">---生人""]","","",""
"","","","","","html-keyboard-response","139","490679","0.0-9.0-0.0-0.0-0.0-1.14","null","<span style='color:GreenYellow; font-size: 70px;'>正确! </span>","null","","","","","","","","","","","","","","","","","","","","","","","","","feedback_test","",""
"","","","","","psychophysics","140","492418","0.0-9.0-0.0-0.0-0.0-0.15","732","","arrowright","","","","","","","","","","","","","key","arrowright","16.67184466019429","720","446","arrowright","true","../../test_img/25.png","朋友","matching_task","朋友","[""<img src=\""../../test_img/25.png\"" width=150 style=\""vertical-align:middle\"">---朋友"",""<img src=\""../../test_img/19.png\"" width=150 style=\""vertical-align:middle\"">---自我"",""<img src=\""../../test_img/12.png\"" width=150 style=\""vertical-align:middle\"">---生人""]","","",""
"","","","","","html-keyboard-response","141","492933","0.0-9.0-0.0-0.0-0.0-1.15","null","<span style='color:GreenYellow; font-size: 70px;'>正确! </span>","null","","","","","","","","","","","","","","","","","","","","","","","","","feedback_test","",""
"","","","","","psychophysics","142","494599","0.0-9.0-0.0-0.0-0.0-0.16","659","","arrowleft","","","","","","","","","","","","","key","arrowleft","16.671717171717173","720","446","arrowleft","true","../../test_img/12.png","朋友","matching_task","生人","[""<img src=\""../../test_img/25.png\"" width=150 style=\""vertical-align:middle\"">---朋友"",""<img src=\""../../test_img/19.png\"" width=150 style=\""vertical-align:middle\"">---自我"",""<img src=\""../../test_img/12.png\"" width=150 style=\""vertical-align:middle\"">---生人""]","","",""
"","","","","","html-keyboard-response","143","495115","0.0-9.0-0.0-0.0-0.0-1.16","null","<span style='color:GreenYellow; font-size: 70px;'>正确! </span>","null","","","","","","","","","","","","","","","","","","","","","","","","","feedback_test","",""
"","","","","","psychophysics","144","496956","0.0-9.0-0.0-0.0-0.0-0.17","838","","arrowleft","","","","","","","","","","","","","key","arrowleft","16.672222222222544","720","446","arrowleft","true","../../test_img/25.png","自我","matching_task","朋友","[""<img src=\""../../test_img/25.png\"" width=150 style=\""vertical-align:middle\"">---朋友"",""<img src=\""../../test_img/19.png\"" width=150 style=\""vertical-align:middle\"">---自我"",""<img src=\""../../test_img/12.png\"" width=150 style=\""vertical-align:middle\"">---生人""]","","",""
"","","","","","html-keyboard-response","145","497462","0.0-9.0-0.0-0.0-0.0-1.17","null","<span style='color:GreenYellow; font-size: 70px;'>正确! </span>","null","","","","","","","","","","","","","","","","","","","","","","","","","feedback_test","",""
"","","","","","psychophysics","146","499179","0.0-9.0-0.0-0.0-0.0-0.18","706","","arrowright","","","","","","","","","","","","","key","arrowright","16.670588235293774","720","446","arrowright","true","../../test_img/12.png","生人","matching_task","生人","[""<img src=\""../../test_img/25.png\"" width=150 style=\""vertical-align:middle\"">---朋友"",""<img src=\""../../test_img/19.png\"" width=150 style=\""vertical-align:middle\"">---自我"",""<img src=\""../../test_img/12.png\"" width=150 style=\""vertical-align:middle\"">---生人""]","","",""
"","","","","","html-keyboard-response","147","499684","0.0-9.0-0.0-0.0-0.0-1.18","null","<span style='color:GreenYellow; font-size: 70px;'>正确! </span>","null","","","","","","","","","","","","","","","","","","","","","","","","","feedback_test","",""
"","","","","","psychophysics","148","501438","0.0-9.0-0.0-0.0-0.0-0.19","750","","arrowright","","","","","","","","","","","","","key","arrowright","16.672115384615047","720","446","arrowleft","false","../../test_img/12.png","自我","matching_task","生人","[""<img src=\""../../test_img/25.png\"" width=150 style=\""vertical-align:middle\"">---朋友"",""<img src=\""../../test_img/19.png\"" width=150 style=\""vertical-align:middle\"">---自我"",""<img src=\""../../test_img/12.png\"" width=150 style=\""vertical-align:middle\"">---生人""]","","",""
"","","","","","html-keyboard-response","149","501953","0.0-9.0-0.0-0.0-0.0-1.19","null","<span style='color:red; font-size: 70px;'>错误! </span>","null","","","","","","","","","","","","","","","","","","","","","","","","","feedback_test","",""
"","","","","","psychophysics","150","503578","0.0-9.0-0.0-0.0-0.0-0.20","617","","arrowright","","","","","","","","","","","","","key","arrowright","16.669791666666544","720","446","arrowright","true","../../test_img/25.png","朋友","matching_task","朋友","[""<img src=\""../../test_img/25.png\"" width=150 style=\""vertical-align:middle\"">---朋友"",""<img src=\""../../test_img/19.png\"" width=150 style=\""vertical-align:middle\"">---自我"",""<img src=\""../../test_img/12.png\"" width=150 style=\""vertical-align:middle\"">---生人""]","","",""
"","","","","","html-keyboard-response","151","504092","0.0-9.0-0.0-0.0-0.0-1.20","null","<span style='color:GreenYellow; font-size: 70px;'>正确! </span>","null","","","","","","","","","","","","","","","","","","","","","","","","","feedback_test","",""
"","","","","","psychophysics","152","505926","0.0-9.0-0.0-0.0-0.0-0.21","831","","arrowleft","","","","","","","","","","","","","key","arrowleft","16.666666666666668","720","446","arrowleft","true","../../test_img/19.png","生人","matching_task","自我","[""<img src=\""../../test_img/25.png\"" width=150 style=\""vertical-align:middle\"">---朋友"",""<img src=\""../../test_img/19.png\"" width=150 style=\""vertical-align:middle\"">---自我"",""<img src=\""../../test_img/12.png\"" width=150 style=\""vertical-align:middle\"">---生人""]","","",""
"","","","","","html-keyboard-response","153","506427","0.0-9.0-0.0-0.0-0.0-1.21","null","<span style='color:GreenYellow; font-size: 70px;'>正确! </span>","null","","","","","","","","","","","","","","","","","","","","","","","","","feedback_test","",""
"","","","","","psychophysics","154","508277","0.0-9.0-0.0-0.0-0.0-0.22","848","","arrowleft","","","","","","","","","","","","","key","arrowleft","16.67247706422061","720","446","arrowleft","true","../../test_img/19.png","朋友","matching_task","自我","[""<img src=\""../../test_img/25.png\"" width=150 style=\""vertical-align:middle\"">---朋友"",""<img src=\""../../test_img/19.png\"" width=150 style=\""vertical-align:middle\"">---自我"",""<img src=\""../../test_img/12.png\"" width=150 style=\""vertical-align:middle\"">---生人""]","","",""
"","","","","","html-keyboard-response","155","508782","0.0-9.0-0.0-0.0-0.0-1.22","null","<span style='color:GreenYellow; font-size: 70px;'>正确! </span>","null","","","","","","","","","","","","","","","","","","","","","","","","","feedback_test","",""
"","","","","","psychophysics","156","510502","0.0-9.0-0.0-0.0-0.0-0.23","707","","arrowright","","","","","","","","","","","","","key","arrowright","16.672549019607615","720","446","arrowright","true","../../test_img/12.png","生人","matching_task","生人","[""<img src=\""../../test_img/25.png\"" width=150 style=\""vertical-align:middle\"">---朋友"",""<img src=\""../../test_img/19.png\"" width=150 style=\""vertical-align:middle\"">---自我"",""<img src=\""../../test_img/12.png\"" width=150 style=\""vertical-align:middle\"">---生人""]","","",""
"","","","","","html-keyboard-response","157","511003","0.0-9.0-0.0-0.0-0.0-1.23","null","<span style='color:GreenYellow; font-size: 70px;'>正确! </span>","null","","","","","","","","","","","","","","","","","","","","","","","","","feedback_test","",""
"","","","","","psychophysics","158","512873","0.0-9.0-0.0-0.0-0.0-0.24","865","","arrowleft","","","","","","","","","","","","","key","arrowleft","16.67225225225221","720","446","arrowleft","true","../../test_img/19.png","朋友","matching_task","自我","[""<img src=\""../../test_img/25.png\"" width=150 style=\""vertical-align:middle\"">---朋友"",""<img src=\""../../test_img/19.png\"" width=150 style=\""vertical-align:middle\"">---自我"",""<img src=\""../../test_img/12.png\"" width=150 style=\""vertical-align:middle\"">---生人""]","","",""
"","","","","","html-keyboard-response","159","513374","0.0-9.0-0.0-0.0-0.0-1.24","null","<span style='color:GreenYellow; font-size: 70px;'>正确! </span>","null","","","","","","","","","","","","","","","","","","","","","","","","","feedback_test","",""
"","","","","","psychophysics","160","515070","0.0-9.0-0.0-0.0-0.0-0.25","690","","arrowright","","","","","","","","","","","","","key","arrowright","16.672000000000118","720","446","arrowright","true","../../test_img/25.png","朋友","matching_task","朋友","[""<img src=\""../../test_img/25.png\"" width=150 style=\""vertical-align:middle\"">---朋友"",""<img src=\""../../test_img/19.png\"" width=150 style=\""vertical-align:middle\"">---自我"",""<img src=\""../../test_img/12.png\"" width=150 style=\""vertical-align:middle\"">---生人""]","","",""
"","","","","","html-keyboard-response","161","515572","0.0-9.0-0.0-0.0-0.0-1.25","null","<span style='color:GreenYellow; font-size: 70px;'>正确! </span>","null","","","","","","","","","","","","","","","","","","","","","","","","","feedback_test","",""
"","","","","","psychophysics","162","517641","0.0-9.0-0.0-0.0-0.0-0.26","1063","","arrowleft","","","","","","","","","","","","","key","arrowleft","16.67235772357733","720","446","arrowleft","true","../../test_img/12.png","朋友","matching_task","生人","[""<img src=\""../../test_img/25.png\"" width=150 style=\""vertical-align:middle\"">---朋友"",""<img src=\""../../test_img/19.png\"" width=150 style=\""vertical-align:middle\"">---自我"",""<img src=\""../../test_img/12.png\"" width=150 style=\""vertical-align:middle\"">---生人""]","","",""
"","","","","","html-keyboard-response","163","518144","0.0-9.0-0.0-0.0-0.0-1.26","null","<span style='color:GreenYellow; font-size: 70px;'>正确! </span>","null","","","","","","","","","","","","","","","","","","","","","","","","","feedback_test","",""
"","","","","","psychophysics","164","520004","0.0-9.0-0.0-0.0-0.0-0.27","854","","arrowleft","","","","","","","","","","","","","key","arrowleft","16.670000000000105","720","446","arrowleft","true","../../test_img/25.png","生人","matching_task","朋友","[""<img src=\""../../test_img/25.png\"" width=150 style=\""vertical-align:middle\"">---朋友"",""<img src=\""../../test_img/19.png\"" width=150 style=\""vertical-align:middle\"">---自我"",""<img src=\""../../test_img/12.png\"" width=150 style=\""vertical-align:middle\"">---生人""]","","",""
"","","","","","html-keyboard-response","165","520513","0.0-9.0-0.0-0.0-0.0-1.27","null","<span style='color:GreenYellow; font-size: 70px;'>正确! </span>","null","","","","","","","","","","","","","","","","","","","","","","","","","feedback_test","",""
"","","","","","psychophysics","166","522630","0.0-9.0-0.0-0.0-0.0-0.28","1115","","arrowright","","","","","","","","","","","","","key","arrowright","16.66319999999972","720","446","arrowright","true","../../test_img/12.png","生人","matching_task","生人","[""<img src=\""../../test_img/25.png\"" width=150 style=\""vertical-align:middle\"">---朋友"",""<img src=\""../../test_img/19.png\"" width=150 style=\""vertical-align:middle\"">---自我"",""<img src=\""../../test_img/12.png\"" width=150 style=\""vertical-align:middle\"">---生人""]","","",""
"","","","","","html-keyboard-response","167","523142","0.0-9.0-0.0-0.0-0.0-1.28","null","<span style='color:GreenYellow; font-size: 70px;'>正确! </span>","null","","","","","","","","","","","","","","","","","","","","","","","","","feedback_test","",""
"","","","","","psychophysics","168","525174","0.0-9.0-0.0-0.0-0.0-0.29","1027","","arrowleft","","","","","","","","","","","","","key","arrowleft","16.672347107438434","720","446","arrowleft","true","../../test_img/19.png","生人","matching_task","自我","[""<img src=\""../../test_img/25.png\"" width=150 style=\""vertical-align:middle\"">---朋友"",""<img src=\""../../test_img/19.png\"" width=150 style=\""vertical-align:middle\"">---自我"",""<img src=\""../../test_img/12.png\"" width=150 style=\""vertical-align:middle\"">---生人""]","","",""
"","","","","","html-keyboard-response","169","525690","0.0-9.0-0.0-0.0-0.0-1.29","null","<span style='color:GreenYellow; font-size: 70px;'>正确! </span>","null","","","","","","","","","","","","","","","","","","","","","","","","","feedback_test","",""
"","","","","","psychophysics","170","527362","0.0-9.0-0.0-0.0-0.0-0.30","662","","arrowright","","","","","","","","","","","","","key","arrowright","16.673737373738078","720","446","arrowright","true","../../test_img/12.png","生人","matching_task","生人","[""<img src=\""../../test_img/25.png\"" width=150 style=\""vertical-align:middle\"">---朋友"",""<img src=\""../../test_img/19.png\"" width=150 style=\""vertical-align:middle\"">---自我"",""<img src=\""../../test_img/12.png\"" width=150 style=\""vertical-align:middle\"">---生人""]","","",""
"","","","","","html-keyboard-response","171","527876","0.0-9.0-0.0-0.0-0.0-1.30","null","<span style='color:GreenYellow; font-size: 70px;'>正确! </span>","null","","","","","","","","","","","","","","","","","","","","","","","","","feedback_test","",""
"","","","","","psychophysics","172","529597","0.0-9.0-0.0-0.0-0.0-0.31","710","","arrowleft","","","","","","","","","","","","","key","arrowleft","16.672549019607615","720","446","arrowleft","true","../../test_img/12.png","自我","matching_task","生人","[""<img src=\""../../test_img/25.png\"" width=150 style=\""vertical-align:middle\"">---朋友"",""<img src=\""../../test_img/19.png\"" width=150 style=\""vertical-align:middle\"">---自我"",""<img src=\""../../test_img/12.png\"" width=150 style=\""vertical-align:middle\"">---生人""]","","",""
"","","","","","html-keyboard-response","173","530098","0.0-9.0-0.0-0.0-0.0-1.31","null","<span style='color:GreenYellow; font-size: 70px;'>正确! </span>","null","","","","","","","","","","","","","","","","","","","","","","","","","feedback_test","",""
"","","","","","psychophysics","174","532304","0.0-9.0-0.0-0.0-0.0-0.32","1203","","arrowleft","","","","","","","","","","","","","key","arrowleft","16.672121212121","720","446","arrowright","false","../../test_img/19.png","自我","matching_task","自我","[""<img src=\""../../test_img/25.png\"" width=150 style=\""vertical-align:middle\"">---朋友"",""<img src=\""../../test_img/19.png\"" width=150 style=\""vertical-align:middle\"">---自我"",""<img src=\""../../test_img/12.png\"" width=150 style=\""vertical-align:middle\"">---生人""]","","",""
"","","","","","html-keyboard-response","175","532819","0.0-9.0-0.0-0.0-0.0-1.32","null","<span style='color:red; font-size: 70px;'>错误! </span>","null","","","","","","","","","","","","","","","","","","","","","","","","","feedback_test","",""
"","","","","","psychophysics","176","534701","0.0-9.0-0.0-0.0-0.0-0.33","880","","arrowleft","","","","","","","","","","","","","key","arrowleft","16.665765765765975","720","446","arrowleft","true","../../test_img/25.png","自我","matching_task","朋友","[""<img src=\""../../test_img/25.png\"" width=150 style=\""vertical-align:middle\"">---朋友"",""<img src=\""../../test_img/19.png\"" width=150 style=\""vertical-align:middle\"">---自我"",""<img src=\""../../test_img/12.png\"" width=150 style=\""vertical-align:middle\"">---生人""]","","",""
"","","","","","html-keyboard-response","177","535214","0.0-9.0-0.0-0.0-0.0-1.33","null","<span style='color:GreenYellow; font-size: 70px;'>正确! </span>","null","","","","","","","","","","","","","","","","","","","","","","","","","feedback_test","",""
"","","","","","psychophysics","178","537061","0.0-9.0-0.0-0.0-0.0-0.34","846","","arrowleft","","","","","","","","","","","","","key","arrowleft","16.671400000000457","720","446","arrowright","false","../../test_img/19.png","自我","matching_task","自我","[""<img src=\""../../test_img/25.png\"" width=150 style=\""vertical-align:middle\"">---朋友"",""<img src=\""../../test_img/19.png\"" width=150 style=\""vertical-align:middle\"">---自我"",""<img src=\""../../test_img/12.png\"" width=150 style=\""vertical-align:middle\"">---生人""]","","",""
"","","","","","html-keyboard-response","179","537577","0.0-9.0-0.0-0.0-0.0-1.34","null","<span style='color:red; font-size: 70px;'>错误! </span>","null","","","","","","","","","","","","","","","","","","","","","","","","","feedback_test","",""
"","","","","","psychophysics","180","539299","0.0-9.0-0.0-0.0-0.0-0.35","719","","arrowright","","","","","","","","","","","","","key","arrowright","16.67029702970251","720","446","arrowright","true","../../test_img/25.png","朋友","matching_task","朋友","[""<img src=\""../../test_img/25.png\"" width=150 style=\""vertical-align:middle\"">---朋友"",""<img src=\""../../test_img/19.png\"" width=150 style=\""vertical-align:middle\"">---自我"",""<img src=\""../../test_img/12.png\"" width=150 style=\""vertical-align:middle\"">---生人""]","","",""
"","","","","","html-keyboard-response","181","539800","0.0-9.0-0.0-0.0-0.0-1.35","null","<span style='color:GreenYellow; font-size: 70px;'>正确! </span>","null","","","","","","","","","","","","","","","","","","","","","","","","","feedback_test","",""
"","","","","","psychophysics","182","541476","0.0-9.0-0.0-0.0-0.0-0.36","672","","arrowleft","","","","","","","","","","","","","key","arrowleft","16.66899999999907","720","446","arrowleft","true","../../test_img/12.png","自我","matching_task","生人","[""<img src=\""../../test_img/25.png\"" width=150 style=\""vertical-align:middle\"">---朋友"",""<img src=\""../../test_img/19.png\"" width=150 style=\""vertical-align:middle\"">---自我"",""<img src=\""../../test_img/12.png\"" width=150 style=\""vertical-align:middle\"">---生人""]","","",""
"","","","","","html-keyboard-response","183","541983","0.0-9.0-0.0-0.0-0.0-1.36","null","<span style='color:GreenYellow; font-size: 70px;'>正确! </span>","null","","","","","","","","","","","","","","","","","","","","","","","","","feedback_test","",""
"","","","","","psychophysics","184","543851","0.0-9.0-0.0-0.0-0.0-0.37","864","","arrowright","","","","","","","","","","","","","key","arrowright","16.65765765765766","720","446","arrowright","true","../../test_img/19.png","自我","matching_task","自我","[""<img src=\""../../test_img/25.png\"" width=150 style=\""vertical-align:middle\"">---朋友"",""<img src=\""../../test_img/19.png\"" width=150 style=\""vertical-align:middle\"">---自我"",""<img src=\""../../test_img/12.png\"" width=150 style=\""vertical-align:middle\"">---生人""]","","",""
"","","","","","html-keyboard-response","185","544362","0.0-9.0-0.0-0.0-0.0-1.37","null","<span style='color:GreenYellow; font-size: 70px;'>正确! </span>","null","","","","","","","","","","","","","","","","","","","","","","","","","feedback_test","",""
"","","","","","psychophysics","186","546001","0.0-9.0-0.0-0.0-0.0-0.38","637","","arrowright","","","","","","","","","","","","","key","arrowright","16.671875","720","446","arrowright","true","../../test_img/25.png","朋友","matching_task","朋友","[""<img src=\""../../test_img/25.png\"" width=150 style=\""vertical-align:middle\"">---朋友"",""<img src=\""../../test_img/19.png\"" width=150 style=\""vertical-align:middle\"">---自我"",""<img src=\""../../test_img/12.png\"" width=150 style=\""vertical-align:middle\"">---生人""]","","",""
"","","","","","html-keyboard-response","187","546505","0.0-9.0-0.0-0.0-0.0-1.38","null","<span style='color:GreenYellow; font-size: 70px;'>正确! </span>","null","","","","","","","","","","","","","","","","","","","","","","","","","feedback_test","",""
"","","","","","psychophysics","188","548104","0.0-9.0-0.0-0.0-0.0-0.39","598","","arrowleft","","","","","","","","","","","","","key","arrowleft","16.67234042553142","720","446","arrowleft","true","../../test_img/12.png","朋友","matching_task","生人","[""<img src=\""../../test_img/25.png\"" width=150 style=\""vertical-align:middle\"">---朋友"",""<img src=\""../../test_img/19.png\"" width=150 style=\""vertical-align:middle\"">---自我"",""<img src=\""../../test_img/12.png\"" width=150 style=\""vertical-align:middle\"">---生人""]","","",""
"","","","","","html-keyboard-response","189","548608","0.0-9.0-0.0-0.0-0.0-1.39","null","<span style='color:GreenYellow; font-size: 70px;'>正确! </span>","null","","","","","","","","","","","","","","","","","","","","","","","","","feedback_test","",""
"","","","","","psychophysics","190","550451","0.0-9.0-0.0-0.0-0.0-0.40","829","","arrowleft","","","","","","","","","","","","","key","arrowleft","16.671559633027094","720","446","arrowleft","true","../../test_img/19.png","朋友","matching_task","自我","[""<img src=\""../../test_img/25.png\"" width=150 style=\""vertical-align:middle\"">---朋友"",""<img src=\""../../test_img/19.png\"" width=150 style=\""vertical-align:middle\"">---自我"",""<img src=\""../../test_img/12.png\"" width=150 style=\""vertical-align:middle\"">---生人""]","","",""
"","","","","","html-keyboard-response","191","550966","0.0-9.0-0.0-0.0-0.0-1.40","null","<span style='color:GreenYellow; font-size: 70px;'>正确! </span>","null","","","","","","","","","","","","","","","","","","","","","","","","","feedback_test","",""
"","","","","","psychophysics","192","552666","0.0-9.0-0.0-0.0-0.0-0.41","693","","arrowright","","","","","","","","","","","","","key","arrowright","16.67","720","446","arrowright","true","../../test_img/25.png","朋友","matching_task","朋友","[""<img src=\""../../test_img/25.png\"" width=150 style=\""vertical-align:middle\"">---朋友"",""<img src=\""../../test_img/19.png\"" width=150 style=\""vertical-align:middle\"">---自我"",""<img src=\""../../test_img/12.png\"" width=150 style=\""vertical-align:middle\"">---生人""]","","",""
"","","","","","html-keyboard-response","193","553180","0.0-9.0-0.0-0.0-0.0-1.41","null","<span style='color:GreenYellow; font-size: 70px;'>正确! </span>","null","","","","","","","","","","","","","","","","","","","","","","","","","feedback_test","",""
"","","","","","psychophysics","194","555046","0.0-9.0-0.0-0.0-0.0-0.42","856","","arrowleft","","","","","","","","","","","","","key","arrowleft","16.67027027027048","720","446","arrowleft","true","../../test_img/25.png","自我","matching_task","朋友","[""<img src=\""../../test_img/25.png\"" width=150 style=\""vertical-align:middle\"">---朋友"",""<img src=\""../../test_img/19.png\"" width=150 style=\""vertical-align:middle\"">---自我"",""<img src=\""../../test_img/12.png\"" width=150 style=\""vertical-align:middle\"">---生人""]","","",""
"","","","","","html-keyboard-response","195","555556","0.0-9.0-0.0-0.0-0.0-1.42","null","<span style='color:GreenYellow; font-size: 70px;'>正确! </span>","null","","","","","","","","","","","","","","","","","","","","","","","","","feedback_test","",""
"","","","","","psychophysics","196","557300","0.0-9.0-0.0-0.0-0.0-0.43","742","","arrowright","","","","","","","","","","","","","key","arrowright","16.66990291262136","720","446","arrowright","true","../../test_img/12.png","生人","matching_task","生人","[""<img src=\""../../test_img/25.png\"" width=150 style=\""vertical-align:middle\"">---朋友"",""<img src=\""../../test_img/19.png\"" width=150 style=\""vertical-align:middle\"">---自我"",""<img src=\""../../test_img/12.png\"" width=150 style=\""vertical-align:middle\"">---生人""]","","",""
"","","","","","html-keyboard-response","197","557801","0.0-9.0-0.0-0.0-0.0-1.43","null","<span style='color:GreenYellow; font-size: 70px;'>正确! </span>","null","","","","","","","","","","","","","","","","","","","","","","","","","feedback_test","",""
"","","","","","psychophysics","198","559581","0.0-9.0-0.0-0.0-0.0-0.44","773","","arrowright","","","","","","","","","","","","","key","arrowright","16.673584905660597","720","446","arrowright","true","../../test_img/19.png","自我","matching_task","自我","[""<img src=\""../../test_img/25.png\"" width=150 style=\""vertical-align:middle\"">---朋友"",""<img src=\""../../test_img/19.png\"" width=150 style=\""vertical-align:middle\"">---自我"",""<img src=\""../../test_img/12.png\"" width=150 style=\""vertical-align:middle\"">---生人""]","","",""
"","","","","","html-keyboard-response","199","560096","0.0-9.0-0.0-0.0-0.0-1.44","null","<span style='color:GreenYellow; font-size: 70px;'>正确! </span>","null","","","","","","","","","","","","","","","","","","","","","","","","","feedback_test","",""
"","","","","","psychophysics","200","561746","0.0-9.0-0.0-0.0-0.0-0.45","644","","arrowleft","","","","","","","","","","","","","key","arrowleft","16.67142857142786","720","446","arrowleft","true","../../test_img/19.png","生人","matching_task","自我","[""<img src=\""../../test_img/25.png\"" width=150 style=\""vertical-align:middle\"">---朋友"",""<img src=\""../../test_img/19.png\"" width=150 style=\""vertical-align:middle\"">---自我"",""<img src=\""../../test_img/12.png\"" width=150 style=\""vertical-align:middle\"">---生人""]","","",""
"","","","","","html-keyboard-response","201","562261","0.0-9.0-0.0-0.0-0.0-1.45","null","<span style='color:GreenYellow; font-size: 70px;'>正确! </span>","null","","","","","","","","","","","","","","","","","","","","","","","","","feedback_test","",""
"","","","","","psychophysics","202","564223","0.0-9.0-0.0-0.0-0.0-0.46","950","","arrowleft","","","","","","","","","","","","","key","arrowleft","16.666086956521536","720","446","arrowleft","true","../../test_img/25.png","生人","matching_task","朋友","[""<img src=\""../../test_img/25.png\"" width=150 style=\""vertical-align:middle\"">---朋友"",""<img src=\""../../test_img/19.png\"" width=150 style=\""vertical-align:middle\"">---自我"",""<img src=\""../../test_img/12.png\"" width=150 style=\""vertical-align:middle\"">---生人""]","","",""
"","","","","","html-keyboard-response","203","564724","0.0-9.0-0.0-0.0-0.0-1.46","null","<span style='color:GreenYellow; font-size: 70px;'>正确! </span>","null","","","","","","","","","","","","","","","","","","","","","","","","","feedback_test","",""
"","","","","","psychophysics","204","566652","0.0-9.0-0.0-0.0-0.0-0.47","925","","arrowright","","","","","","","","","","","","","key","arrowright","16.670608695652135","720","446","arrowright","true","../../test_img/12.png","生人","matching_task","生人","[""<img src=\""../../test_img/25.png\"" width=150 style=\""vertical-align:middle\"">---朋友"",""<img src=\""../../test_img/19.png\"" width=150 style=\""vertical-align:middle\"">---自我"",""<img src=\""../../test_img/12.png\"" width=150 style=\""vertical-align:middle\"">---生人""]","","",""
"","","","","","html-keyboard-response","205","567168","0.0-9.0-0.0-0.0-0.0-1.47","null","<span style='color:GreenYellow; font-size: 70px;'>正确! </span>","null","","","","","","","","","","","","","","","","","","","","","","","","","feedback_test","",""
"","","","","","psychophysics","206","568905","0.0-9.0-0.0-0.0-0.0-0.48","733","","arrowright","","","","","","","","","","","","","key","arrowright","16.66960784313771","720","446","arrowright","true","../../test_img/25.png","朋友","matching_task","朋友","[""<img src=\""../../test_img/25.png\"" width=150 style=\""vertical-align:middle\"">---朋友"",""<img src=\""../../test_img/19.png\"" width=150 style=\""vertical-align:middle\"">---自我"",""<img src=\""../../test_img/12.png\"" width=150 style=\""vertical-align:middle\"">---生人""]","","",""
"","","","","","html-keyboard-response","207","569410","0.0-9.0-0.0-0.0-0.0-1.48","null","<span style='color:GreenYellow; font-size: 70px;'>正确! </span>","null","","","","","","","","","","","","","","","","","","","","","","","","","feedback_test","",""
"","","","","","psychophysics","208","571254","0.0-9.0-0.0-0.0-0.0-0.49","843","","arrowleft","","","","","","","","","","","","","key","arrowleft","16.67064220183465","720","446","arrowleft","true","../../test_img/19.png","朋友","matching_task","自我","[""<img src=\""../../test_img/25.png\"" width=150 style=\""vertical-align:middle\"">---朋友"",""<img src=\""../../test_img/19.png\"" width=150 style=\""vertical-align:middle\"">---自我"",""<img src=\""../../test_img/12.png\"" width=150 style=\""vertical-align:middle\"">---生人""]","","",""
"","","","","","html-keyboard-response","209","571756","0.0-9.0-0.0-0.0-0.0-1.49","null","<span style='color:GreenYellow; font-size: 70px;'>正确! </span>","null","","","","","","","","","","","","","","","","","","","","","","","","","feedback_test","",""
"","","","","","psychophysics","210","573570","0.0-9.0-0.0-0.0-0.0-0.50","807","","arrowleft","","","","","","","","","","","","","key","arrowleft","16.672407407407363","720","446","arrowleft","true","../../test_img/25.png","生人","matching_task","朋友","[""<img src=\""../../test_img/25.png\"" width=150 style=\""vertical-align:middle\"">---朋友"",""<img src=\""../../test_img/19.png\"" width=150 style=\""vertical-align:middle\"">---自我"",""<img src=\""../../test_img/12.png\"" width=150 style=\""vertical-align:middle\"">---生人""]","","",""
"","","","","","html-keyboard-response","211","574073","0.0-9.0-0.0-0.0-0.0-1.50","null","<span style='color:GreenYellow; font-size: 70px;'>正确! </span>","null","","","","","","","","","","","","","","","","","","","","","","","","","feedback_test","",""
"","","","","","psychophysics","212","575889","0.0-9.0-0.0-0.0-0.0-0.51","814","","arrowright","","","","","","","","","","","","","key","arrowright","16.672222222222008","720","446","arrowright","true","../../test_img/12.png","生人","matching_task","生人","[""<img src=\""../../test_img/25.png\"" width=150 style=\""vertical-align:middle\"">---朋友"",""<img src=\""../../test_img/19.png\"" width=150 style=\""vertical-align:middle\"">---自我"",""<img src=\""../../test_img/12.png\"" width=150 style=\""vertical-align:middle\"">---生人""]","","",""
"","","","","","html-keyboard-response","213","576403","0.0-9.0-0.0-0.0-0.0-1.51","null","<span style='color:GreenYellow; font-size: 70px;'>正确! </span>","null","","","","","","","","","","","","","","","","","","","","","","","","","feedback_test","",""
"","","","","","psychophysics","214","578298","0.0-9.0-0.0-0.0-0.0-0.52","893","","arrowright","","","","","","","","","","","","","key","arrowright","16.669911504424366","720","446","arrowright","true","../../test_img/12.png","生人","matching_task","生人","[""<img src=\""../../test_img/25.png\"" width=150 style=\""vertical-align:middle\"">---朋友"",""<img src=\""../../test_img/19.png\"" width=150 style=\""vertical-align:middle\"">---自我"",""<img src=\""../../test_img/12.png\"" width=150 style=\""vertical-align:middle\"">---生人""]","","",""
"","","","","","html-keyboard-response","215","578813","0.0-9.0-0.0-0.0-0.0-1.52","null","<span style='color:GreenYellow; font-size: 70px;'>正确! </span>","null","","","","","","","","","","","","","","","","","","","","","","","","","feedback_test","",""
"","","","","","psychophysics","216","580465","0.0-9.0-0.0-0.0-0.0-0.53","650","","arrowright","","","","","","","","","","","","","key","arrowright","16.671428571429047","720","446","arrowleft","false","../../test_img/25.png","自我","matching_task","朋友","[""<img src=\""../../test_img/25.png\"" width=150 style=\""vertical-align:middle\"">---朋友"",""<img src=\""../../test_img/19.png\"" width=150 style=\""vertical-align:middle\"">---自我"",""<img src=\""../../test_img/12.png\"" width=150 style=\""vertical-align:middle\"">---生人""]","","",""
"","","","","","html-keyboard-response","217","580981","0.0-9.0-0.0-0.0-0.0-1.53","null","<span style='color:red; font-size: 70px;'>错误! </span>","null","","","","","","","","","","","","","","","","","","","","","","","","","feedback_test","",""
"","","","","","psychophysics","218","582699","0.0-9.0-0.0-0.0-0.0-0.54","716","","arrowleft","","","","","","","","","","","","","key","arrowleft","16.670588235294346","720","446","arrowleft","true","../../test_img/12.png","自我","matching_task","生人","[""<img src=\""../../test_img/25.png\"" width=150 style=\""vertical-align:middle\"">---朋友"",""<img src=\""../../test_img/19.png\"" width=150 style=\""vertical-align:middle\"">---自我"",""<img src=\""../../test_img/12.png\"" width=150 style=\""vertical-align:middle\"">---生人""]","","",""
"","","","","","html-keyboard-response","219","583209","0.0-9.0-0.0-0.0-0.0-1.54","null","<span style='color:GreenYellow; font-size: 70px;'>正确! </span>","null","","","","","","","","","","","","","","","","","","","","","","","","","feedback_test","",""
"","","","","","psychophysics","220","584979","0.0-9.0-0.0-0.0-0.0-0.55","767","","arrowleft","","","","","","","","","","","","","key","arrowleft","16.67066666666596","720","446","arrowleft","true","../../test_img/12.png","朋友","matching_task","生人","[""<img src=\""../../test_img/25.png\"" width=150 style=\""vertical-align:middle\"">---朋友"",""<img src=\""../../test_img/19.png\"" width=150 style=\""vertical-align:middle\"">---自我"",""<img src=\""../../test_img/12.png\"" width=150 style=\""vertical-align:middle\"">---生人""]","","",""
"","","","","","html-keyboard-response","221","585482","0.0-9.0-0.0-0.0-0.0-1.55","null","<span style='color:GreenYellow; font-size: 70px;'>正确! </span>","null","","","","","","","","","","","","","","","","","","","","","","","","","feedback_test","",""
"","","","","","psychophysics","222","587123","0.0-9.0-0.0-0.0-0.0-0.56","640","","arrowright","","","","","","","","","","","","","key","arrowright","16.671134020619515","720","446","arrowright","true","../../test_img/25.png","朋友","matching_task","朋友","[""<img src=\""../../test_img/25.png\"" width=150 style=\""vertical-align:middle\"">---朋友"",""<img src=\""../../test_img/19.png\"" width=150 style=\""vertical-align:middle\"">---自我"",""<img src=\""../../test_img/12.png\"" width=150 style=\""vertical-align:middle\"">---生人""]","","",""
"","","","","","html-keyboard-response","223","587634","0.0-9.0-0.0-0.0-0.0-1.56","null","<span style='color:GreenYellow; font-size: 70px;'>正确! </span>","null","","","","","","","","","","","","","","","","","","","","","","","","","feedback_test","",""
"","","","","","psychophysics","224","589276","0.0-9.0-0.0-0.0-0.0-0.57","639","","arrowright","","","","","","","","","","","","","key","arrowright","16.67422680412395","720","446","arrowright","true","../../test_img/19.png","自我","matching_task","自我","[""<img src=\""../../test_img/25.png\"" width=150 style=\""vertical-align:middle\"">---朋友"",""<img src=\""../../test_img/19.png\"" width=150 style=\""vertical-align:middle\"">---自我"",""<img src=\""../../test_img/12.png\"" width=150 style=\""vertical-align:middle\"">---生人""]","","",""
"","","","","","html-keyboard-response","225","589780","0.0-9.0-0.0-0.0-0.0-1.57","null","<span style='color:GreenYellow; font-size: 70px;'>正确! </span>","null","","","","","","","","","","","","","","","","","","","","","","","","","feedback_test","",""
"","","","","","psychophysics","226","591545","0.0-9.0-0.0-0.0-0.0-0.58","763","","arrowleft","","","","","","","","","","","","","key","arrowleft","16.667307692307915","720","446","arrowright","false","../../test_img/19.png","自我","matching_task","自我","[""<img src=\""../../test_img/25.png\"" width=150 style=\""vertical-align:middle\"">---朋友"",""<img src=\""../../test_img/19.png\"" width=150 style=\""vertical-align:middle\"">---自我"",""<img src=\""../../test_img/12.png\"" width=150 style=\""vertical-align:middle\"">---生人""]","","",""
"","","","","","html-keyboard-response","227","592048","0.0-9.0-0.0-0.0-0.0-1.58","null","<span style='color:red; font-size: 70px;'>错误! </span>","null","","","","","","","","","","","","","","","","","","","","","","","","","feedback_test","",""
"","","","","","psychophysics","228","593869","0.0-9.0-0.0-0.0-0.0-0.59","819","","arrowleft","","","","","","","","","","","","","key","arrowleft","16.662962962962748","720","446","arrowleft","true","../../test_img/19.png","生人","matching_task","自我","[""<img src=\""../../test_img/25.png\"" width=150 style=\""vertical-align:middle\"">---朋友"",""<img src=\""../../test_img/19.png\"" width=150 style=\""vertical-align:middle\"">---自我"",""<img src=\""../../test_img/12.png\"" width=150 style=\""vertical-align:middle\"">---生人""]","","",""
"","","","","","html-keyboard-response","229","594377","0.0-9.0-0.0-0.0-0.0-1.59","null","<span style='color:GreenYellow; font-size: 70px;'>正确! </span>","null","","","","","","","","","","","","","","","","","","","","","","","","","feedback_test","",""
"","","","","","psychophysics","230","595992","0.0-9.0-0.0-0.0-0.0-0.60","608","","arrowright","","","","","","","","","","","","","key","arrowright","16.671875","720","446","arrowright","true","../../test_img/12.png","生人","matching_task","生人","[""<img src=\""../../test_img/25.png\"" width=150 style=\""vertical-align:middle\"">---朋友"",""<img src=\""../../test_img/19.png\"" width=150 style=\""vertical-align:middle\"">---自我"",""<img src=\""../../test_img/12.png\"" width=150 style=\""vertical-align:middle\"">---生人""]","","",""
"","","","","","html-keyboard-response","231","596502","0.0-9.0-0.0-0.0-0.0-1.60","null","<span style='color:GreenYellow; font-size: 70px;'>正确! </span>","null","","","","","","","","","","","","","","","","","","","","","","","","","feedback_test","",""
"","","","","","psychophysics","232","598553","0.0-9.0-0.0-0.0-0.0-0.61","1046","","arrowright","","","","","","","","","","","","","key","arrowright","16.668686868686397","720","446","arrowright","true","../../test_img/25.png","朋友","matching_task","朋友","[""<img src=\""../../test_img/25.png\"" width=150 style=\""vertical-align:middle\"">---朋友"",""<img src=\""../../test_img/19.png\"" width=150 style=\""vertical-align:middle\"">---自我"",""<img src=\""../../test_img/12.png\"" width=150 style=\""vertical-align:middle\"">---生人""]","","",""
"","","","","","html-keyboard-response","233","599068","0.0-9.0-0.0-0.0-0.0-1.61","null","<span style='color:GreenYellow; font-size: 70px;'>正确! </span>","null","","","","","","","","","","","","","","","","","","","","","","","","","feedback_test","",""
"","","","","","psychophysics","234","600915","0.0-9.0-0.0-0.0-0.0-0.62","844","","arrowright","","","","","","","","","","","","","key","arrowright","16.67247706422061","720","446","arrowleft","false","../../test_img/19.png","朋友","matching_task","自我","[""<img src=\""../../test_img/25.png\"" width=150 style=\""vertical-align:middle\"">---朋友"",""<img src=\""../../test_img/19.png\"" width=150 style=\""vertical-align:middle\"">---自我"",""<img src=\""../../test_img/12.png\"" width=150 style=\""vertical-align:middle\"">---生人""]","","",""
"","","","","","html-keyboard-response","235","601419","0.0-9.0-0.0-0.0-0.0-1.62","null","<span style='color:red; font-size: 70px;'>错误! </span>","null","","","","","","","","","","","","","","","","","","","","","","","","","feedback_test","",""
"","","","","","psychophysics","236","603166","0.0-9.0-0.0-0.0-0.0-0.63","746","","arrowleft","","","","","","","","","","","","","key","arrowleft","16.671844660194854","720","446","arrowleft","true","../../test_img/12.png","自我","matching_task","生人","[""<img src=\""../../test_img/25.png\"" width=150 style=\""vertical-align:middle\"">---朋友"",""<img src=\""../../test_img/19.png\"" width=150 style=\""vertical-align:middle\"">---自我"",""<img src=\""../../test_img/12.png\"" width=150 style=\""vertical-align:middle\"">---生人""]","","",""
"","","","","","html-keyboard-response","237","603677","0.0-9.0-0.0-0.0-0.0-1.63","null","<span style='color:GreenYellow; font-size: 70px;'>正确! </span>","null","","","","","","","","","","","","","","","","","","","","","","","","","feedback_test","",""
"","","","","","psychophysics","238","605398","0.0-9.0-0.0-0.0-0.0-0.64","716","","arrowright","","","","","","","","","","","","","key","arrowright","16.673267326732674","720","446","arrowleft","false","../../test_img/25.png","自我","matching_task","朋友","[""<img src=\""../../test_img/25.png\"" width=150 style=\""vertical-align:middle\"">---朋友"",""<img src=\""../../test_img/19.png\"" width=150 style=\""vertical-align:middle\"">---自我"",""<img src=\""../../test_img/12.png\"" width=150 style=\""vertical-align:middle\"">---生人""]","","",""
"","","","","","html-keyboard-response","239","605900","0.0-9.0-0.0-0.0-0.0-1.64","null","<span style='color:red; font-size: 70px;'>错误! </span>","null","","","","","","","","","","","","","","","","","","","","","","","","","feedback_test","",""
"","","","","","psychophysics","240","607634","0.0-9.0-0.0-0.0-0.0-0.65","730","","arrowleft","","","","","","","","","","","","","key","arrowleft","16.672815533979904","720","446","arrowleft","true","../../test_img/25.png","生人","matching_task","朋友","[""<img src=\""../../test_img/25.png\"" width=150 style=\""vertical-align:middle\"">---朋友"",""<img src=\""../../test_img/19.png\"" width=150 style=\""vertical-align:middle\"">---自我"",""<img src=\""../../test_img/12.png\"" width=150 style=\""vertical-align:middle\"">---生人""]","","",""
"","","","","","html-keyboard-response","241","608146","0.0-9.0-0.0-0.0-0.0-1.65","null","<span style='color:GreenYellow; font-size: 70px;'>正确! </span>","null","","","","","","","","","","","","","","","","","","","","","","","","","feedback_test","",""
"","","","","","psychophysics","242","609896","0.0-9.0-0.0-0.0-0.0-0.66","739","","arrowright","","","","","","","","","","","","","key","arrowright","16.672634615384876","720","446","arrowright","true","../../test_img/12.png","生人","matching_task","生人","[""<img src=\""../../test_img/25.png\"" width=150 style=\""vertical-align:middle\"">---朋友"",""<img src=\""../../test_img/19.png\"" width=150 style=\""vertical-align:middle\"">---自我"",""<img src=\""../../test_img/12.png\"" width=150 style=\""vertical-align:middle\"">---生人""]","","",""
"","","","","","html-keyboard-response","243","610399","0.0-9.0-0.0-0.0-0.0-1.66","null","<span style='color:GreenYellow; font-size: 70px;'>正确! </span>","null","","","","","","","","","","","","","","","","","","","","","","","","","feedback_test","",""
"","","","","","psychophysics","244","612151","0.0-9.0-0.0-0.0-0.0-0.67","746","","arrowright","","","","","","","","","","","","","key","arrowright","16.672307692306976","720","446","arrowright","true","../../test_img/19.png","自我","matching_task","自我","[""<img src=\""../../test_img/25.png\"" width=150 style=\""vertical-align:middle\"">---朋友"",""<img src=\""../../test_img/19.png\"" width=150 style=\""vertical-align:middle\"">---自我"",""<img src=\""../../test_img/12.png\"" width=150 style=\""vertical-align:middle\"">---生人""]","","",""
"","","","","","html-keyboard-response","245","612658","0.0-9.0-0.0-0.0-0.0-1.67","null","<span style='color:GreenYellow; font-size: 70px;'>正确! </span>","null","","","","","","","","","","","","","","","","","","","","","","","","","feedback_test","",""
"","","","","","psychophysics","246","614700","0.0-9.0-0.0-0.0-0.0-0.68","1038","","arrowleft","","","","","","","","","","","","","key","arrowleft","16.672727272727464","720","446","arrowleft","true","../../test_img/19.png","生人","matching_task","自我","[""<img src=\""../../test_img/25.png\"" width=150 style=\""vertical-align:middle\"">---朋友"",""<img src=\""../../test_img/19.png\"" width=150 style=\""vertical-align:middle\"">---自我"",""<img src=\""../../test_img/12.png\"" width=150 style=\""vertical-align:middle\"">---生人""]","","",""
"","","","","","html-keyboard-response","247","615209","0.0-9.0-0.0-0.0-0.0-1.68","null","<span style='color:GreenYellow; font-size: 70px;'>正确! </span>","null","","","","","","","","","","","","","","","","","","","","","","","","","feedback_test","",""
"","","","","","psychophysics","248","616902","0.0-9.0-0.0-0.0-0.0-0.69","692","","arrowleft","","","","","","","","","","","","","key","arrowleft","16.67100000000093","720","446","arrowleft","true","../../test_img/12.png","朋友","matching_task","生人","[""<img src=\""../../test_img/25.png\"" width=150 style=\""vertical-align:middle\"">---朋友"",""<img src=\""../../test_img/19.png\"" width=150 style=\""vertical-align:middle\"">---自我"",""<img src=\""../../test_img/12.png\"" width=150 style=\""vertical-align:middle\"">---生人""]","","",""
"","","","","","html-keyboard-response","249","617411","0.0-9.0-0.0-0.0-0.0-1.69","null","<span style='color:GreenYellow; font-size: 70px;'>正确! </span>","null","","","","","","","","","","","","","","","","","","","","","","","","","feedback_test","",""
"","","","","","psychophysics","250","619040","0.0-9.0-0.0-0.0-0.0-0.70","623","","arrowright","","","","","","","","","","","","","key","arrowright","16.667368421052878","720","446","arrowright","true","../../test_img/25.png","朋友","matching_task","朋友","[""<img src=\""../../test_img/25.png\"" width=150 style=\""vertical-align:middle\"">---朋友"",""<img src=\""../../test_img/19.png\"" width=150 style=\""vertical-align:middle\"">---自我"",""<img src=\""../../test_img/12.png\"" width=150 style=\""vertical-align:middle\"">---生人""]","","",""
"","","","","","html-keyboard-response","251","619541","0.0-9.0-0.0-0.0-0.0-1.70","null","<span style='color:GreenYellow; font-size: 70px;'>正确! </span>","null","","","","","","","","","","","","","","","","","","","","","","","","","feedback_test","",""
"","","","","","psychophysics","252","621251","0.0-9.0-0.0-0.0-0.0-0.71","708","","arrowright","","","","","","","","","","","","","key","arrowright","16.67128712871333","720","446","arrowright","true","../../test_img/19.png","自我","matching_task","自我","[""<img src=\""../../test_img/25.png\"" width=150 style=\""vertical-align:middle\"">---朋友"",""<img src=\""../../test_img/19.png\"" width=150 style=\""vertical-align:middle\"">---自我"",""<img src=\""../../test_img/12.png\"" width=150 style=\""vertical-align:middle\"">---生人""]","","",""
"","","","","","html-keyboard-response","253","621764","0.0-9.0-0.0-0.0-0.0-1.71","null","<span style='color:GreenYellow; font-size: 70px;'>正确! </span>","null","","","","","","","","","","","","","","","","","","","","","","","","","feedback_test","",""
"","","","","","html-keyboard-response","254","651136","0.0-9.0-0.0-0.0-1.0","29369","<style>.context{color:white; font-size: 35px; line-height:40px}</style>                          <div><p class='context'>您正确回答了85% 的试次。</p><p class='context'>您的平均反应时为793毫秒。</p><p class='context'>请按任意键进入休息</p></div>"," ","","","","","","","","","","","","","","","","","","","","","","","","","","",""
"","","","","","html-button-response","255","670020","0.0-9.0-0.0-0.0-2.0","18881","
                    <p>知觉匹配任务中，您还剩余4组实验</p>
                    <p>现在是休息时间，当您结束休息后，您可以点击 结束休息 按钮 继续</p>
                    <p>建议休息时间还剩余<span id=""iii"">60</span>秒</p>","0","","","","","","","","","","","","","","","","","","","","","","","","","","",""
"","","","","","psychophysics","256","671688","0.0-9.0-0.0-0.0-0.1-0.72","661","","arrowright","","","","","","","","","","","","","key","arrowright","16.67142857142786","720","446","arrowleft","false","../../test_img/12.png","自我","matching_task","生人","[""<img src=\""../../test_img/25.png\"" width=150 style=\""vertical-align:middle\"">---朋友"",""<img src=\""../../test_img/19.png\"" width=150 style=\""vertical-align:middle\"">---自我"",""<img src=\""../../test_img/12.png\"" width=150 style=\""vertical-align:middle\"">---生人""]","","",""
"","","","","","html-keyboard-response","257","672203","0.0-9.0-0.0-0.0-0.1-1.72","null","<span style='color:red; font-size: 70px;'>错误! </span>","null","","","","","","","","","","","","","","","","","","","","","","","","","feedback_test","",""
