"success","timeout","failed_images","failed_audio","failed_video","trial_type","trial_index","time_elapsed","internal_node_id","rt","stimulus","response","value","item_width_mm","item_height_mm","item_width_px","px2mm","view_dist_mm","item_width_deg","px2deg","scale_factor","win_width_deg","win_height_deg","view_history","response_type","key_press","avg_frame_time","center_x","center_y","correct_response","correct","Image","word","condition","shape","association","screen_id","LeftLable","RightLable"
"true","false","[]","[]","[]","preload","0","550","0.0-0.0","","","","","","","","","","","","","","","","","","","","","","","","","","","","","",""
"","","","","","html-keyboard-response","1","22116","0.0-1.0","21565","
     <p>您好，欢迎参加本次实验。</p>
     <p>为充分保障您的权利，请确保您已经知晓并同意《参与实验同意书》以及《数据公开知情同意书》。</p>
     <p>如果您未见过上述内容，请咨询实验员。</p>
     <p>如果您选择继续实验，则表示您已经清楚两份知情同意书的内容并同意。</p>
     <p> <div style = ""color: green""><按任意键至下页></div> </p>
     "," ","","","","","","","","","","","","","","","","","","","","","","","","","","",""
"","","","","","html-keyboard-response","2","23770","0.0-2.0","1653","
     <p>本实验首先需要您填写一些基本个人信息。</p>
     <p> <div style = ""color: green""><按任意键至下页></div></p>
     "," ","","","","","","","","","","","","","","","","","","","","","","","","","","",""
"","","","","","call-function","3","23771","0.0-3.0-0.0","","","","","","","","","","","","","","","","","","","","","","","","","","","","","",""
"","","","","","survey-html-form","4","28483","0.0-3.0-1.0","4709","","{""Q0"":""11""}","","","","","","","","","","","","","","","","","","","","","","","","","","",""
"","","","","","html-button-response","5","29635","0.0-3.0-2.0","1149","<p style = 'color : white'>您的性别</p>","1","","","","","","","","","","","","","","","","","","","","","","","","","","",""
"","","","","","survey-html-form","6","34746","0.0-3.0-3.0","5110","","{""Q0"":""2000""}","","","","","","","","","","","","","","","","","","","","","","","","","","",""
"","","","","","survey-html-form","7","37794","0.0-3.0-4.0","3046","","{""Q0"":""6""}","","","","","","","","","","","","","","","","","","","","","","","","","","",""
"","","","","","virtual-chinrest","8","108122","0.0-4.0","70327","","","","85.6","53.98","585.3923992060919","6.837141200029807","417.45","11.70784798412184","50","0.6610950202374487","30.72","13.56","","","","","","","","","","","","","","","",""
"true","","","","","fullscreen","9","111589","0.0-5.0","","","","","","","","","","","","","","","","","","","","","","","","","","","","","",""
"","","","","","instructions","10","262857","0.0-6.0","151266","","","","","","","","","","","","","","[{""page_index"":0,""viewing_time"":6930},{""page_index"":1,""viewing_time"":104521},{""page_index"":2,""viewing_time"":16632},{""page_index"":3,""viewing_time"":11096},{""page_index"":4,""viewing_time"":12087}]","","","","","","","","","","","","","","",""
"","","","","","psychophysics","11","264723","0.0-7.0-0.0-0.0","861","","arrowright","","","","","","","","","","","","","key","arrowright","16.66545454545465","768","402","arrowleft","false","../../test_img/19.png","自我","prac_matching_task","朋友","[""<img src=\""../../test_img/12.png\"" width=150 style=\""vertical-align:middle\"">---生人"",""<img src=\""../../test_img/25.png\"" width=150 style=\""vertical-align:middle\"">---自我"",""<img src=\""../../test_img/19.png\"" width=150 style=\""vertical-align:middle\"">---朋友""]","","",""
"","","","","","html-keyboard-response","12","265032","0.0-7.0-0.0-1.0","null","<span style='color:red; font-size: 70px;'>错误! </span>","null","","","","","","","","","","","","","","","","","","","","","","","","","feedback_test","",""
"","","","","","psychophysics","13","266957","0.0-7.0-0.0-0.1","922","","arrowleft","","","","","","","","","","","","","key","arrowleft","16.668421052631682","768","402","arrowleft","true","../../test_img/12.png","自我","prac_matching_task","生人","[""<img src=\""../../test_img/12.png\"" width=150 style=\""vertical-align:middle\"">---生人"",""<img src=\""../../test_img/25.png\"" width=150 style=\""vertical-align:middle\"">---自我"",""<img src=\""../../test_img/19.png\"" width=150 style=\""vertical-align:middle\"">---朋友""]","","",""
"","","","","","html-keyboard-response","14","267266","0.0-7.0-0.0-1.1","null","<span style='color:GreenYellow; font-size: 70px;'>正确! </span>","null","","","","","","","","","","","","","","","","","","","","","","","","","feedback_test","",""
"","","","","","psychophysics","15","269503","0.0-7.0-0.0-0.2","1229","","arrowright","","","","","","","","","","","","","key","arrowright","16.66575939849604","768","402","arrowleft","false","../../test_img/19.png","生人","prac_matching_task","朋友","[""<img src=\""../../test_img/12.png\"" width=150 style=\""vertical-align:middle\"">---生人"",""<img src=\""../../test_img/25.png\"" width=150 style=\""vertical-align:middle\"">---自我"",""<img src=\""../../test_img/19.png\"" width=150 style=\""vertical-align:middle\"">---朋友""]","","",""
"","","","","","html-keyboard-response","16","269806","0.0-7.0-0.0-1.2","null","<span style='color:red; font-size: 70px;'>错误! </span>","null","","","","","","","","","","","","","","","","","","","","","","","","","feedback_test","",""
"","","","","","psychophysics","17","271721","0.0-7.0-0.0-0.3","913","","arrowright","","","","","","","","","","","","","key","arrowright","16.667256637168347","768","402","arrowright","true","../../test_img/19.png","朋友","prac_matching_task","朋友","[""<img src=\""../../test_img/12.png\"" width=150 style=\""vertical-align:middle\"">---生人"",""<img src=\""../../test_img/25.png\"" width=150 style=\""vertical-align:middle\"">---自我"",""<img src=\""../../test_img/19.png\"" width=150 style=\""vertical-align:middle\"">---朋友""]","","",""
"","","","","","html-keyboard-response","18","272030","0.0-7.0-0.0-1.3","null","<span style='color:GreenYellow; font-size: 70px;'>正确! </span>","null","","","","","","","","","","","","","","","","","","","","","","","","","feedback_test","",""
"","","","","","psychophysics","19","274366","0.0-7.0-0.0-0.4","1328","","arrowleft","","","","","","","","","","","","","key","arrowleft","17.033088235294116","768","402","arrowright","false","../../test_img/25.png","自我","prac_matching_task","自我","[""<img src=\""../../test_img/12.png\"" width=150 style=\""vertical-align:middle\"">---生人"",""<img src=\""../../test_img/25.png\"" width=150 style=\""vertical-align:middle\"">---自我"",""<img src=\""../../test_img/19.png\"" width=150 style=\""vertical-align:middle\"">---朋友""]","","",""
"","","","","","html-keyboard-response","20","274672","0.0-7.0-0.0-1.4","null","<span style='color:red; font-size: 70px;'>错误! </span>","null","","","","","","","","","","","","","","","","","","","","","","","","","feedback_test","",""
"","","","","","psychophysics","21","276849","0.0-7.0-0.0-0.5","1174","","arrowleft","","","","","","","","","","","","","key","arrowleft","16.881102362204906","768","402","arrowright","false","../../test_img/19.png","朋友","prac_matching_task","朋友","[""<img src=\""../../test_img/12.png\"" width=150 style=\""vertical-align:middle\"">---生人"",""<img src=\""../../test_img/25.png\"" width=150 style=\""vertical-align:middle\"">---自我"",""<img src=\""../../test_img/19.png\"" width=150 style=\""vertical-align:middle\"">---朋友""]","","",""
"","","","","","html-keyboard-response","22","277158","0.0-7.0-0.0-1.5","null","<span style='color:red; font-size: 70px;'>错误! </span>","null","","","","","","","","","","","","","","","","","","","","","","","","","feedback_test","",""
"","","","","","psychophysics","23","279106","0.0-7.0-0.0-0.6","936","","arrowleft","","","","","","","","","","","","","key","arrowleft","16.66521739130435","768","402","arrowright","false","../../test_img/12.png","生人","prac_matching_task","生人","[""<img src=\""../../test_img/12.png\"" width=150 style=\""vertical-align:middle\"">---生人"",""<img src=\""../../test_img/25.png\"" width=150 style=\""vertical-align:middle\"">---自我"",""<img src=\""../../test_img/19.png\"" width=150 style=\""vertical-align:middle\"">---朋友""]","","",""
"","","","","","html-keyboard-response","24","279413","0.0-7.0-0.0-1.6","null","<span style='color:red; font-size: 70px;'>错误! </span>","null","","","","","","","","","","","","","","","","","","","","","","","","","feedback_test","",""
"","","","","","psychophysics","25","281750","0.0-7.0-0.0-0.7","1331","","arrowright","","","","","","","","","","","","","key","arrowright","16.666187050359962","768","402","arrowright","true","../../test_img/25.png","自我","prac_matching_task","自我","[""<img src=\""../../test_img/12.png\"" width=150 style=\""vertical-align:middle\"">---生人"",""<img src=\""../../test_img/25.png\"" width=150 style=\""vertical-align:middle\"">---自我"",""<img src=\""../../test_img/19.png\"" width=150 style=\""vertical-align:middle\"">---朋友""]","","",""
"","","","","","html-keyboard-response","26","282058","0.0-7.0-0.0-1.7","null","<span style='color:GreenYellow; font-size: 70px;'>正确! </span>","null","","","","","","","","","","","","","","","","","","","","","","","","","feedback_test","",""
"","","","","","psychophysics","27","284436","0.0-7.0-0.0-0.8","1366","","arrowright","","","","","","","","","","","","","key","arrowright","16.668794326241464","768","402","arrowleft","false","../../test_img/25.png","朋友","prac_matching_task","自我","[""<img src=\""../../test_img/12.png\"" width=150 style=\""vertical-align:middle\"">---生人"",""<img src=\""../../test_img/25.png\"" width=150 style=\""vertical-align:middle\"">---自我"",""<img src=\""../../test_img/19.png\"" width=150 style=\""vertical-align:middle\"">---朋友""]","","",""
"","","","","","html-keyboard-response","28","284747","0.0-7.0-0.0-1.8","null","<span style='color:red; font-size: 70px;'>错误! </span>","null","","","","","","","","","","","","","","","","","","","","","","","","","feedback_test","",""
"","","","","","psychophysics","29","286859","0.0-7.0-0.0-0.9","1106","","arrowleft","","","","","","","","","","","","","key","arrowleft","16.665873015872737","768","402","arrowleft","true","../../test_img/12.png","朋友","prac_matching_task","生人","[""<img src=\""../../test_img/12.png\"" width=150 style=\""vertical-align:middle\"">---生人"",""<img src=\""../../test_img/25.png\"" width=150 style=\""vertical-align:middle\"">---自我"",""<img src=\""../../test_img/19.png\"" width=150 style=\""vertical-align:middle\"">---朋友""]","","",""
"","","","","","html-keyboard-response","30","287161","0.0-7.0-0.0-1.9","null","<span style='color:GreenYellow; font-size: 70px;'>正确! </span>","null","","","","","","","","","","","","","","","","","","","","","","","","","feedback_test","",""
"","","","","","psychophysics","31","289009","0.0-7.0-0.0-0.10","837","","arrowright","","","","","","","","","","","","","key","arrowright","16.66545454545412","768","402","arrowright","true","../../test_img/12.png","生人","prac_matching_task","生人","[""<img src=\""../../test_img/12.png\"" width=150 style=\""vertical-align:middle\"">---生人"",""<img src=\""../../test_img/25.png\"" width=150 style=\""vertical-align:middle\"">---自我"",""<img src=\""../../test_img/19.png\"" width=150 style=\""vertical-align:middle\"">---朋友""]","","",""
"","","","","","html-keyboard-response","32","289311","0.0-7.0-0.0-1.10","null","<span style='color:GreenYellow; font-size: 70px;'>正确! </span>","null","","","","","","","","","","","","","","","","","","","","","","","","","feedback_test","",""
"","","","","","psychophysics","33","291281","0.0-7.0-0.0-0.11","963","","arrowleft","","","","","","","","","","","","","key","arrowleft","16.66923076923067","768","402","arrowleft","true","../../test_img/25.png","生人","prac_matching_task","自我","[""<img src=\""../../test_img/12.png\"" width=150 style=\""vertical-align:middle\"">---生人"",""<img src=\""../../test_img/25.png\"" width=150 style=\""vertical-align:middle\"">---自我"",""<img src=\""../../test_img/19.png\"" width=150 style=\""vertical-align:middle\"">---朋友""]","","",""
"","","","","","html-keyboard-response","34","291587","0.0-7.0-0.0-1.11","null","<span style='color:GreenYellow; font-size: 70px;'>正确! </span>","null","","","","","","","","","","","","","","","","","","","","","","","","","feedback_test","",""
"","","","","","psychophysics","35","294059","0.0-7.0-0.0-0.12","1470","","arrowleft","","","","","","","","","","","","","key","arrowleft","16.622448979591837","768","402","arrowright","false","../../test_img/12.png","生人","prac_matching_task","生人","[""<img src=\""../../test_img/12.png\"" width=150 style=\""vertical-align:middle\"">---生人"",""<img src=\""../../test_img/25.png\"" width=150 style=\""vertical-align:middle\"">---自我"",""<img src=\""../../test_img/19.png\"" width=150 style=\""vertical-align:middle\"">---朋友""]","","",""
"","","","","","html-keyboard-response","36","294368","0.0-7.0-0.0-1.12","null","<span style='color:red; font-size: 70px;'>错误! </span>","null","","","","","","","","","","","","","","","","","","","","","","","","","feedback_test","",""
"","","","","","psychophysics","37","296626","0.0-7.0-0.0-0.13","1254","","arrowright","","","","","","","","","","","","","key","arrowright","16.662222222222393","768","402","arrowright","true","../../test_img/25.png","自我","prac_matching_task","自我","[""<img src=\""../../test_img/12.png\"" width=150 style=\""vertical-align:middle\"">---生人"",""<img src=\""../../test_img/25.png\"" width=150 style=\""vertical-align:middle\"">---自我"",""<img src=\""../../test_img/19.png\"" width=150 style=\""vertical-align:middle\"">---朋友""]","","",""
"","","","","","html-keyboard-response","38","296932","0.0-7.0-0.0-1.13","null","<span style='color:GreenYellow; font-size: 70px;'>正确! </span>","null","","","","","","","","","","","","","","","","","","","","","","","","","feedback_test","",""
"","","","","","psychophysics","39","299226","0.0-7.0-0.0-0.14","1289","","arrowleft","","","","","","","","","","","","","key","arrowleft","16.66569343065702","768","402","arrowleft","true","../../test_img/12.png","自我","prac_matching_task","生人","[""<img src=\""../../test_img/12.png\"" width=150 style=\""vertical-align:middle\"">---生人"",""<img src=\""../../test_img/25.png\"" width=150 style=\""vertical-align:middle\"">---自我"",""<img src=\""../../test_img/19.png\"" width=150 style=\""vertical-align:middle\"">---朋友""]","","",""
"","","","","","html-keyboard-response","40","299528","0.0-7.0-0.0-1.14","null","<span style='color:GreenYellow; font-size: 70px;'>正确! </span>","null","","","","","","","","","","","","","","","","","","","","","","","","","feedback_test","",""
"","","","","","psychophysics","41","302015","0.0-7.0-0.0-0.15","1480","","arrowright","","","","","","","","","","","","","key","arrowright","16.664189189189504","768","402","arrowright","true","../../test_img/19.png","朋友","prac_matching_task","朋友","[""<img src=\""../../test_img/12.png\"" width=150 style=\""vertical-align:middle\"">---生人"",""<img src=\""../../test_img/25.png\"" width=150 style=\""vertical-align:middle\"">---自我"",""<img src=\""../../test_img/19.png\"" width=150 style=\""vertical-align:middle\"">---朋友""]","","",""
"","","","","","html-keyboard-response","42","302317","0.0-7.0-0.0-1.15","null","<span style='color:GreenYellow; font-size: 70px;'>正确! </span>","null","","","","","","","","","","","","","","","","","","","","","","","","","feedback_test","",""
"","","","","","psychophysics","43","304706","0.0-7.0-0.0-0.16","1387","","arrowleft","","","","","","","","","","","","","key","arrowleft","16.66643356643389","768","402","arrowleft","true","../../test_img/12.png","朋友","prac_matching_task","生人","[""<img src=\""../../test_img/12.png\"" width=150 style=\""vertical-align:middle\"">---生人"",""<img src=\""../../test_img/25.png\"" width=150 style=\""vertical-align:middle\"">---自我"",""<img src=\""../../test_img/19.png\"" width=150 style=\""vertical-align:middle\"">---朋友""]","","",""
"","","","","","html-keyboard-response","44","305014","0.0-7.0-0.0-1.16","null","<span style='color:GreenYellow; font-size: 70px;'>正确! </span>","null","","","","","","","","","","","","","","","","","","","","","","","","","feedback_test","",""
"","","","","","psychophysics","45","307521","0.0-7.0-0.0-0.17","null","","null","","","","","","","","","","","","","key","null","16.666442953020056","768","402","arrowleft","false","../../test_img/25.png","朋友","prac_matching_task","自我","[""<img src=\""../../test_img/12.png\"" width=150 style=\""vertical-align:middle\"">---生人"",""<img src=\""../../test_img/25.png\"" width=150 style=\""vertical-align:middle\"">---自我"",""<img src=\""../../test_img/19.png\"" width=150 style=\""vertical-align:middle\"">---朋友""]","","",""
"","","","","","html-keyboard-response","46","307829","0.0-7.0-0.0-1.17","null","<span class='add_' style='color:yellow; font-size: 70px;'> 太慢! </span>","null","","","","","","","","","","","","","","","","","","","","","","","","","feedback_test","",""
"","","","","","psychophysics","47","309818","0.0-7.0-0.0-0.18","987","","arrowright","","","","","","","","","","","","","key","arrowright","16.666101694915056","768","402","arrowleft","false","../../test_img/19.png","生人","prac_matching_task","朋友","[""<img src=\""../../test_img/12.png\"" width=150 style=\""vertical-align:middle\"">---生人"",""<img src=\""../../test_img/25.png\"" width=150 style=\""vertical-align:middle\"">---自我"",""<img src=\""../../test_img/19.png\"" width=150 style=\""vertical-align:middle\"">---朋友""]","","",""
"","","","","","html-keyboard-response","48","310119","0.0-7.0-0.0-1.18","null","<span style='color:red; font-size: 70px;'>错误! </span>","null","","","","","","","","","","","","","","","","","","","","","","","","","feedback_test","",""
"","","","","","psychophysics","49","311984","0.0-7.0-0.0-0.19","863","","arrowleft","","","","","","","","","","","","","key","arrowleft","16.603636363636575","768","402","arrowright","false","../../test_img/12.png","生人","prac_matching_task","生人","[""<img src=\""../../test_img/12.png\"" width=150 style=\""vertical-align:middle\"">---生人"",""<img src=\""../../test_img/25.png\"" width=150 style=\""vertical-align:middle\"">---自我"",""<img src=\""../../test_img/19.png\"" width=150 style=\""vertical-align:middle\"">---朋友""]","","",""
"","","","","","html-keyboard-response","50","312296","0.0-7.0-0.0-1.19","null","<span style='color:red; font-size: 70px;'>错误! </span>","null","","","","","","","","","","","","","","","","","","","","","","","","","feedback_test","",""
"","","","","","psychophysics","51","314665","0.0-7.0-0.0-0.20","1363","","arrowright","","","","","","","","","","","","","key","arrowright","16.668085106382648","768","402","arrowright","true","../../test_img/19.png","朋友","prac_matching_task","朋友","[""<img src=\""../../test_img/12.png\"" width=150 style=\""vertical-align:middle\"">---生人"",""<img src=\""../../test_img/25.png\"" width=150 style=\""vertical-align:middle\"">---自我"",""<img src=\""../../test_img/19.png\"" width=150 style=\""vertical-align:middle\"">---朋友""]","","",""
"","","","","","html-keyboard-response","52","314970","0.0-7.0-0.0-1.20","null","<span style='color:GreenYellow; font-size: 70px;'>正确! </span>","null","","","","","","","","","","","","","","","","","","","","","","","","","feedback_test","",""
"","","","","","psychophysics","53","316829","0.0-7.0-0.0-0.21","857","","arrowleft","","","","","","","","","","","","","key","arrowleft","16.66545454545412","768","402","arrowleft","true","../../test_img/25.png","生人","prac_matching_task","自我","[""<img src=\""../../test_img/12.png\"" width=150 style=\""vertical-align:middle\"">---生人"",""<img src=\""../../test_img/25.png\"" width=150 style=\""vertical-align:middle\"">---自我"",""<img src=\""../../test_img/19.png\"" width=150 style=\""vertical-align:middle\"">---朋友""]","","",""
"","","","","","html-keyboard-response","54","317131","0.0-7.0-0.0-1.21","null","<span style='color:GreenYellow; font-size: 70px;'>正确! </span>","null","","","","","","","","","","","","","","","","","","","","","","","","","feedback_test","",""
"","","","","","psychophysics","55","319119","0.0-7.0-0.0-0.22","985","","arrowright","","","","","","","","","","","","","key","arrowright","16.665254237288135","768","402","arrowright","true","../../test_img/25.png","自我","prac_matching_task","自我","[""<img src=\""../../test_img/12.png\"" width=150 style=\""vertical-align:middle\"">---生人"",""<img src=\""../../test_img/25.png\"" width=150 style=\""vertical-align:middle\"">---自我"",""<img src=\""../../test_img/19.png\"" width=150 style=\""vertical-align:middle\"">---朋友""]","","",""
"","","","","","html-keyboard-response","56","319422","0.0-7.0-0.0-1.22","null","<span style='color:GreenYellow; font-size: 70px;'>正确! </span>","null","","","","","","","","","","","","","","","","","","","","","","","","","feedback_test","",""
"","","","","","psychophysics","57","321481","0.0-7.0-0.0-0.23","1050","","arrowleft","","","","","","","","","","","","","key","arrowleft","16.666393442622855","768","402","arrowleft","true","../../test_img/19.png","自我","prac_matching_task","朋友","[""<img src=\""../../test_img/12.png\"" width=150 style=\""vertical-align:middle\"">---生人"",""<img src=\""../../test_img/25.png\"" width=150 style=\""vertical-align:middle\"">---自我"",""<img src=\""../../test_img/19.png\"" width=150 style=\""vertical-align:middle\"">---朋友""]","","",""
"","","","","","html-keyboard-response","58","321787","0.0-7.0-0.0-1.23","null","<span style='color:GreenYellow; font-size: 70px;'>正确! </span>","null","","","","","","","","","","","","","","","","","","","","","","","","","feedback_test","",""
"","","","","","html-keyboard-response","59","330052","0.0-7.0-1.0-0.0","8263","<style>.context{color:white; font-size: 35px; line-height:40px}</style>                          <div><p class='context'>您正确回答了58% 的试次。</p ><p class='context'>您的平均反应时为1124毫秒。</p >"," ","","","","","","","","","","","","","","","","","","","","","","","","","","",""
"","","","","","instructions","60","367777","0.0-7.0-1.0-1.0","37724","","","","","","","","","","","","","","[{""page_index"":0,""viewing_time"":15796},{""page_index"":1,""viewing_time"":19471},{""page_index"":2,""viewing_time"":1000},{""page_index"":3,""viewing_time"":1456}]","","","","","","","","","","","","","","",""
"","","","","","psychophysics","61","369607","0.0-7.1-0.1-0.24","824","","arrowright","","","","","","","","","","","","","key","arrowright","16.66605504587188","768","402","arrowright","true","../../test_img/12.png","生人","prac_matching_task","生人","[""<img src=\""../../test_img/12.png\"" width=150 style=\""vertical-align:middle\"">---生人"",""<img src=\""../../test_img/25.png\"" width=150 style=\""vertical-align:middle\"">---自我"",""<img src=\""../../test_img/19.png\"" width=150 style=\""vertical-align:middle\"">---朋友""]","","",""
"","","","","","html-keyboard-response","62","369909","0.0-7.1-0.1-1.24","null","<span style='color:GreenYellow; font-size: 70px;'>正确! </span>","null","","","","","","","","","","","","","","","","","","","","","","","","","feedback_test","",""
"","","","","","psychophysics","63","371957","0.0-7.1-0.1-0.25","1046","","arrowleft","","","","","","","","","","","","","key","arrowleft","16.66967213114716","768","402","arrowleft","true","../../test_img/19.png","自我","prac_matching_task","朋友","[""<img src=\""../../test_img/12.png\"" width=150 style=\""vertical-align:middle\"">---生人"",""<img src=\""../../test_img/25.png\"" width=150 style=\""vertical-align:middle\"">---自我"",""<img src=\""../../test_img/19.png\"" width=150 style=\""vertical-align:middle\"">---朋友""]","","",""
"","","","","","html-keyboard-response","64","372269","0.0-7.1-0.1-1.25","null","<span style='color:GreenYellow; font-size: 70px;'>正确! </span>","null","","","","","","","","","","","","","","","","","","","","","","","","","feedback_test","",""
"","","","","","psychophysics","65","374113","0.0-7.1-0.1-0.26","831","","arrowleft","","","","","","","","","","","","","key","arrowleft","16.666055045871346","768","402","arrowleft","true","../../test_img/12.png","自我","prac_matching_task","生人","[""<img src=\""../../test_img/12.png\"" width=150 style=\""vertical-align:middle\"">---生人"",""<img src=\""../../test_img/25.png\"" width=150 style=\""vertical-align:middle\"">---自我"",""<img src=\""../../test_img/19.png\"" width=150 style=\""vertical-align:middle\"">---朋友""]","","",""
"","","","","","html-keyboard-response","66","374420","0.0-7.1-0.1-1.26","null","<span style='color:GreenYellow; font-size: 70px;'>正确! </span>","null","","","","","","","","","","","","","","","","","","","","","","","","","feedback_test","",""
"","","","","","psychophysics","67","376215","0.0-7.1-0.1-0.27","782","","arrowright","","","","","","","","","","","","","key","arrowright","16.66886792452852","768","402","arrowright","true","../../test_img/19.png","朋友","prac_matching_task","朋友","[""<img src=\""../../test_img/12.png\"" width=150 style=\""vertical-align:middle\"">---生人"",""<img src=\""../../test_img/25.png\"" width=150 style=\""vertical-align:middle\"">---自我"",""<img src=\""../../test_img/19.png\"" width=150 style=\""vertical-align:middle\"">---朋友""]","","",""
"","","","","","html-keyboard-response","68","376525","0.0-7.1-0.1-1.27","null","<span style='color:GreenYellow; font-size: 70px;'>正确! </span>","null","","","","","","","","","","","","","","","","","","","","","","","","","feedback_test","",""
"","","","","","psychophysics","69","378517","0.0-7.1-0.1-0.28","986","","arrowright","","","","","","","","","","","","","key","arrowright","16.66949152542373","768","402","arrowright","true","../../test_img/19.png","朋友","prac_matching_task","朋友","[""<img src=\""../../test_img/12.png\"" width=150 style=\""vertical-align:middle\"">---生人"",""<img src=\""../../test_img/25.png\"" width=150 style=\""vertical-align:middle\"">---自我"",""<img src=\""../../test_img/19.png\"" width=150 style=\""vertical-align:middle\"">---朋友""]","","",""
"","","","","","html-keyboard-response","70","378828","0.0-7.1-0.1-1.28","null","<span style='color:GreenYellow; font-size: 70px;'>正确! </span>","null","","","","","","","","","","","","","","","","","","","","","","","","","feedback_test","",""
"","","","","","psychophysics","71","380554","0.0-7.1-0.1-0.29","720","","arrowleft","","","","","","","","","","","","","key","arrowleft","16.666019417475503","768","402","arrowleft","true","../../test_img/25.png","生人","prac_matching_task","自我","[""<img src=\""../../test_img/12.png\"" width=150 style=\""vertical-align:middle\"">---生人"",""<img src=\""../../test_img/25.png\"" width=150 style=\""vertical-align:middle\"">---自我"",""<img src=\""../../test_img/19.png\"" width=150 style=\""vertical-align:middle\"">---朋友""]","","",""
"","","","","","html-keyboard-response","72","380863","0.0-7.1-0.1-1.29","null","<span style='color:GreenYellow; font-size: 70px;'>正确! </span>","null","","","","","","","","","","","","","","","","","","","","","","","","","feedback_test","",""
"","","","","","psychophysics","73","382581","0.0-7.1-0.1-0.30","713","","arrowright","","","","","","","","","","","","","key","arrowright","16.665686274510033","768","402","arrowright","true","../../test_img/25.png","自我","prac_matching_task","自我","[""<img src=\""../../test_img/12.png\"" width=150 style=\""vertical-align:middle\"">---生人"",""<img src=\""../../test_img/25.png\"" width=150 style=\""vertical-align:middle\"">---自我"",""<img src=\""../../test_img/19.png\"" width=150 style=\""vertical-align:middle\"">---朋友""]","","",""
"","","","","","html-keyboard-response","74","382883","0.0-7.1-0.1-1.30","null","<span style='color:GreenYellow; font-size: 70px;'>正确! </span>","null","","","","","","","","","","","","","","","","","","","","","","","","","feedback_test","",""
"","","","","","psychophysics","75","384812","0.0-7.1-0.1-0.31","928","","arrowright","","","","","","","","","","","","","key","arrowright","16.608771929824766","768","402","arrowleft","false","../../test_img/25.png","朋友","prac_matching_task","自我","[""<img src=\""../../test_img/12.png\"" width=150 style=\""vertical-align:middle\"">---生人"",""<img src=\""../../test_img/25.png\"" width=150 style=\""vertical-align:middle\"">---自我"",""<img src=\""../../test_img/19.png\"" width=150 style=\""vertical-align:middle\"">---朋友""]","","",""
"","","","","","html-keyboard-response","76","385117","0.0-7.1-0.1-1.31","null","<span style='color:red; font-size: 70px;'>错误! </span>","null","","","","","","","","","","","","","","","","","","","","","","","","","feedback_test","",""
"","","","","","psychophysics","77","387142","0.0-7.1-0.1-0.32","1019","","arrowright","","","","","","","","","","","","","key","arrowright","16.664166666666762","768","402","arrowleft","false","../../test_img/19.png","生人","prac_matching_task","朋友","[""<img src=\""../../test_img/12.png\"" width=150 style=\""vertical-align:middle\"">---生人"",""<img src=\""../../test_img/25.png\"" width=150 style=\""vertical-align:middle\"">---自我"",""<img src=\""../../test_img/19.png\"" width=150 style=\""vertical-align:middle\"">---朋友""]","","",""
"","","","","","html-keyboard-response","78","387453","0.0-7.1-0.1-1.32","null","<span style='color:red; font-size: 70px;'>错误! </span>","null","","","","","","","","","","","","","","","","","","","","","","","","","feedback_test","",""
"","","","","","psychophysics","79","389247","0.0-7.1-0.1-0.33","782","","arrowright","","","","","","","","","","","","","key","arrowright","16.662616822430124","768","402","arrowleft","false","../../test_img/12.png","朋友","prac_matching_task","生人","[""<img src=\""../../test_img/12.png\"" width=150 style=\""vertical-align:middle\"">---生人"",""<img src=\""../../test_img/25.png\"" width=150 style=\""vertical-align:middle\"">---自我"",""<img src=\""../../test_img/19.png\"" width=150 style=\""vertical-align:middle\"">---朋友""]","","",""
"","","","","","html-keyboard-response","80","389552","0.0-7.1-0.1-1.33","null","<span style='color:red; font-size: 70px;'>错误! </span>","null","","","","","","","","","","","","","","","","","","","","","","","","","feedback_test","",""
"","","","","","psychophysics","81","391816","0.0-7.1-0.1-0.34","1252","","arrowright","","","","","","","","","","","","","key","arrowright","16.665671641791132","768","402","arrowright","true","../../test_img/12.png","生人","prac_matching_task","生人","[""<img src=\""../../test_img/12.png\"" width=150 style=\""vertical-align:middle\"">---生人"",""<img src=\""../../test_img/25.png\"" width=150 style=\""vertical-align:middle\"">---自我"",""<img src=\""../../test_img/19.png\"" width=150 style=\""vertical-align:middle\"">---朋友""]","","",""
"","","","","","html-keyboard-response","82","392127","0.0-7.1-0.1-1.34","null","<span style='color:GreenYellow; font-size: 70px;'>正确! </span>","null","","","","","","","","","","","","","","","","","","","","","","","","","feedback_test","",""
"","","","","","psychophysics","83","394341","0.0-7.1-0.1-0.35","1211","","arrowright","","","","","","","","","","","","","key","arrowright","16.667424242424506","768","402","arrowright","true","../../test_img/25.png","自我","prac_matching_task","自我","[""<img src=\""../../test_img/12.png\"" width=150 style=\""vertical-align:middle\"">---生人"",""<img src=\""../../test_img/25.png\"" width=150 style=\""vertical-align:middle\"">---自我"",""<img src=\""../../test_img/19.png\"" width=150 style=\""vertical-align:middle\"">---朋友""]","","",""
"","","","","","html-keyboard-response","84","394647","0.0-7.1-0.1-1.35","null","<span style='color:GreenYellow; font-size: 70px;'>正确! </span>","null","","","","","","","","","","","","","","","","","","","","","","","","","feedback_test","",""
"","","","","","psychophysics","85","396335","0.0-7.1-0.1-0.36","685","","arrowleft","","","","","","","","","","","","","key","arrowleft","16.66546534653465","768","402","arrowright","false","../../test_img/12.png","生人","prac_matching_task","生人","[""<img src=\""../../test_img/12.png\"" width=150 style=\""vertical-align:middle\"">---生人"",""<img src=\""../../test_img/25.png\"" width=150 style=\""vertical-align:middle\"">---自我"",""<img src=\""../../test_img/19.png\"" width=150 style=\""vertical-align:middle\"">---朋友""]","","",""
"","","","","","html-keyboard-response","86","396640","0.0-7.1-0.1-1.36","null","<span style='color:red; font-size: 70px;'>错误! </span>","null","","","","","","","","","","","","","","","","","","","","","","","","","feedback_test","",""
"","","","","","psychophysics","87","398648","0.0-7.1-0.1-0.37","1002","","arrowright","","","","","","","","","","","","","key","arrowright","16.665546218487005","768","402","arrowright","true","../../test_img/19.png","朋友","prac_matching_task","朋友","[""<img src=\""../../test_img/12.png\"" width=150 style=\""vertical-align:middle\"">---生人"",""<img src=\""../../test_img/25.png\"" width=150 style=\""vertical-align:middle\"">---自我"",""<img src=\""../../test_img/19.png\"" width=150 style=\""vertical-align:middle\"">---朋友""]","","",""
"","","","","","html-keyboard-response","88","398958","0.0-7.1-0.1-1.37","null","<span style='color:GreenYellow; font-size: 70px;'>正确! </span>","null","","","","","","","","","","","","","","","","","","","","","","","","","feedback_test","",""
"","","","","","psychophysics","89","401090","0.0-7.1-0.1-0.38","1127","","arrowleft","","","","","","","","","","","","","key","arrowleft","16.664566929134043","768","402","arrowleft","true","../../test_img/19.png","自我","prac_matching_task","朋友","[""<img src=\""../../test_img/12.png\"" width=150 style=\""vertical-align:middle\"">---生人"",""<img src=\""../../test_img/25.png\"" width=150 style=\""vertical-align:middle\"">---自我"",""<img src=\""../../test_img/19.png\"" width=150 style=\""vertical-align:middle\"">---朋友""]","","",""
"","","","","","html-keyboard-response","90","401398","0.0-7.1-0.1-1.38","null","<span style='color:GreenYellow; font-size: 70px;'>正确! </span>","null","","","","","","","","","","","","","","","","","","","","","","","","","feedback_test","",""
"","","","","","psychophysics","91","403631","0.0-7.1-0.1-0.39","1231","","arrowright","","","","","","","","","","","","","key","arrowright","16.664661654135514","768","402","arrowright","true","../../test_img/19.png","朋友","prac_matching_task","朋友","[""<img src=\""../../test_img/12.png\"" width=150 style=\""vertical-align:middle\"">---生人"",""<img src=\""../../test_img/25.png\"" width=150 style=\""vertical-align:middle\"">---自我"",""<img src=\""../../test_img/19.png\"" width=150 style=\""vertical-align:middle\"">---朋友""]","","",""
"","","","","","html-keyboard-response","92","403940","0.0-7.1-0.1-1.39","null","<span style='color:GreenYellow; font-size: 70px;'>正确! </span>","null","","","","","","","","","","","","","","","","","","","","","","","","","feedback_test","",""
"","","","","","psychophysics","93","406097","0.0-7.1-0.1-0.40","1154","","arrowleft","","","","","","","","","","","","","key","arrowleft","16.667187499999727","768","402","arrowleft","true","../../test_img/12.png","朋友","prac_matching_task","生人","[""<img src=\""../../test_img/12.png\"" width=150 style=\""vertical-align:middle\"">---生人"",""<img src=\""../../test_img/25.png\"" width=150 style=\""vertical-align:middle\"">---自我"",""<img src=\""../../test_img/19.png\"" width=150 style=\""vertical-align:middle\"">---朋友""]","","",""
"","","","","","html-keyboard-response","94","406404","0.0-7.1-0.1-1.40","null","<span style='color:GreenYellow; font-size: 70px;'>正确! </span>","null","","","","","","","","","","","","","","","","","","","","","","","","","feedback_test","",""
"","","","","","psychophysics","95","408422","0.0-7.1-0.1-0.41","1009","","arrowright","","","","","","","","","","","","","key","arrowright","16.666666666666668","768","402","arrowright","true","../../test_img/25.png","自我","prac_matching_task","自我","[""<img src=\""../../test_img/12.png\"" width=150 style=\""vertical-align:middle\"">---生人"",""<img src=\""../../test_img/25.png\"" width=150 style=\""vertical-align:middle\"">---自我"",""<img src=\""../../test_img/19.png\"" width=150 style=\""vertical-align:middle\"">---朋友""]","","",""
"","","","","","html-keyboard-response","96","408723","0.0-7.1-0.1-1.41","null","<span style='color:GreenYellow; font-size: 70px;'>正确! </span>","null","","","","","","","","","","","","","","","","","","","","","","","","","feedback_test","",""
"","","","","","psychophysics","97","410526","0.0-7.1-0.1-0.42","796","","arrowright","","","","","","","","","","","","","key","arrowright","16.662037037037038","768","402","arrowleft","false","../../test_img/19.png","生人","prac_matching_task","朋友","[""<img src=\""../../test_img/12.png\"" width=150 style=\""vertical-align:middle\"">---生人"",""<img src=\""../../test_img/25.png\"" width=150 style=\""vertical-align:middle\"">---自我"",""<img src=\""../../test_img/19.png\"" width=150 style=\""vertical-align:middle\"">---朋友""]","","",""
"","","","","","html-keyboard-response","98","410835","0.0-7.1-0.1-1.42","null","<span style='color:red; font-size: 70px;'>错误! </span>","null","","","","","","","","","","","","","","","","","","","","","","","","","feedback_test","",""
"","","","","","psychophysics","99","413011","0.0-7.1-0.1-0.43","1164","","arrowright","","","","","","","","","","","","","key","arrowright","16.6658914728684","768","402","arrowleft","false","../../test_img/12.png","自我","prac_matching_task","生人","[""<img src=\""../../test_img/12.png\"" width=150 style=\""vertical-align:middle\"">---生人"",""<img src=\""../../test_img/25.png\"" width=150 style=\""vertical-align:middle\"">---自我"",""<img src=\""../../test_img/19.png\"" width=150 style=\""vertical-align:middle\"">---朋友""]","","",""
"","","","","","html-keyboard-response","100","413319","0.0-7.1-0.1-1.43","null","<span style='color:red; font-size: 70px;'>错误! </span>","null","","","","","","","","","","","","","","","","","","","","","","","","","feedback_test","",""
"","","","","","psychophysics","101","415273","0.0-7.1-0.1-0.44","945","","arrowleft","","","","","","","","","","","","","key","arrowleft","16.662931034482458","768","402","arrowleft","true","../../test_img/25.png","生人","prac_matching_task","自我","[""<img src=\""../../test_img/12.png\"" width=150 style=\""vertical-align:middle\"">---生人"",""<img src=\""../../test_img/25.png\"" width=150 style=\""vertical-align:middle\"">---自我"",""<img src=\""../../test_img/19.png\"" width=150 style=\""vertical-align:middle\"">---朋友""]","","",""
"","","","","","html-keyboard-response","102","415581","0.0-7.1-0.1-1.44","null","<span style='color:GreenYellow; font-size: 70px;'>正确! </span>","null","","","","","","","","","","","","","","","","","","","","","","","","","feedback_test","",""
"","","","","","psychophysics","103","417590","0.0-7.1-0.1-0.45","1007","","arrowright","","","","","","","","","","","","","key","arrowright","16.601680672268714","768","402","arrowright","true","../../test_img/12.png","生人","prac_matching_task","生人","[""<img src=\""../../test_img/12.png\"" width=150 style=\""vertical-align:middle\"">---生人"",""<img src=\""../../test_img/25.png\"" width=150 style=\""vertical-align:middle\"">---自我"",""<img src=\""../../test_img/19.png\"" width=150 style=\""vertical-align:middle\"">---朋友""]","","",""
"","","","","","html-keyboard-response","104","417897","0.0-7.1-0.1-1.45","null","<span style='color:GreenYellow; font-size: 70px;'>正确! </span>","null","","","","","","","","","","","","","","","","","","","","","","","","","feedback_test","",""
"","","","","","psychophysics","105","419735","0.0-7.1-0.1-0.46","836","","arrowright","","","","","","","","","","","","","key","arrowright","16.603669724770537","768","402","arrowright","true","../../test_img/25.png","自我","prac_matching_task","自我","[""<img src=\""../../test_img/12.png\"" width=150 style=\""vertical-align:middle\"">---生人"",""<img src=\""../../test_img/25.png\"" width=150 style=\""vertical-align:middle\"">---自我"",""<img src=\""../../test_img/19.png\"" width=150 style=\""vertical-align:middle\"">---朋友""]","","",""
"","","","","","html-keyboard-response","106","420036","0.0-7.1-0.1-1.46","null","<span style='color:GreenYellow; font-size: 70px;'>正确! </span>","null","","","","","","","","","","","","","","","","","","","","","","","","","feedback_test","",""
"","","","","","psychophysics","107","421767","0.0-7.1-0.1-0.47","720","","arrowleft","","","","","","","","","","","","","key","arrowleft","16.668932038835177","768","402","arrowleft","true","../../test_img/25.png","朋友","prac_matching_task","自我","[""<img src=\""../../test_img/12.png\"" width=150 style=\""vertical-align:middle\"">---生人"",""<img src=\""../../test_img/25.png\"" width=150 style=\""vertical-align:middle\"">---自我"",""<img src=\""../../test_img/19.png\"" width=150 style=\""vertical-align:middle\"">---朋友""]","","",""
"","","","","","html-keyboard-response","108","422073","0.0-7.1-0.1-1.47","null","<span style='color:GreenYellow; font-size: 70px;'>正确! </span>","null","","","","","","","","","","","","","","","","","","","","","","","","","feedback_test","",""
"","","","","","html-keyboard-response","109","480100","0.0-8.0","58024","<style>.context{color:white; font-size: 35px; line-height:40px}</style>                          <div><p class='context'>您正确回答了75% 的试次。</p ><p class='context'>您的平均反应时为966毫秒。</p ><p class='context'>恭喜您完成练习。按任意键进入知觉匹配任务正式实验。</p ><p style = 'color:lightgreen; font-size: 35px;' >正式实验与练习要求相同，请您尽可能又快又准地进行按键反应</p><p class='footer' style='font-size: 22px; line-height:40px;'>请将您右手的<span style='color: lightgreen;'>食指与无名指</span>放在电脑键盘的相应键位上进行按键。</p >"," ","","","","","","","","","","","","","","","","","","","","","","","","","","",""
"","","","","","psychophysics","110","482310","0.0-9.0-0.0-0.0-0.0-0.0","1202","","arrowleft","","","","","","","","","","","","","key","arrowleft","16.669465648855052","768","402","arrowleft","true","../../test_img/25.png","生人","matching_task","自我","[""<img src=\""../../test_img/12.png\"" width=150 style=\""vertical-align:middle\"">---生人"",""<img src=\""../../test_img/25.png\"" width=150 style=\""vertical-align:middle\"">---自我"",""<img src=\""../../test_img/19.png\"" width=150 style=\""vertical-align:middle\"">---朋友""]","","",""
"","","","","","html-keyboard-response","111","482812","0.0-9.0-0.0-0.0-0.0-1.0","null","<span style='color:GreenYellow; font-size: 70px;'>正确! </span>","null","","","","","","","","","","","","","","","","","","","","","","","","","feedback_test","",""
"","","","","","psychophysics","112","484832","0.0-9.0-0.0-0.0-0.0-0.1","1017","","arrowleft","","","","","","","","","","","","","key","arrowleft","16.66833333333343","768","402","arrowright","false","../../test_img/12.png","生人","matching_task","生人","[""<img src=\""../../test_img/12.png\"" width=150 style=\""vertical-align:middle\"">---生人"",""<img src=\""../../test_img/25.png\"" width=150 style=\""vertical-align:middle\"">---自我"",""<img src=\""../../test_img/19.png\"" width=150 style=\""vertical-align:middle\"">---朋友""]","","",""
"","","","","","html-keyboard-response","113","485334","0.0-9.0-0.0-0.0-0.0-1.1","null","<span style='color:red; font-size: 70px;'>错误! </span>","null","","","","","","","","","","","","","","","","","","","","","","","","","feedback_test","",""
"","","","","","psychophysics","114","487405","0.0-9.0-0.0-0.0-0.0-0.2","1062","","arrowright","","","","","","","","","","","","","key","arrowright","16.665203252032104","768","402","arrowright","true","../../test_img/19.png","朋友","matching_task","朋友","[""<img src=\""../../test_img/12.png\"" width=150 style=\""vertical-align:middle\"">---生人"",""<img src=\""../../test_img/25.png\"" width=150 style=\""vertical-align:middle\"">---自我"",""<img src=\""../../test_img/19.png\"" width=150 style=\""vertical-align:middle\"">---朋友""]","","",""
"","","","","","html-keyboard-response","115","487912","0.0-9.0-0.0-0.0-0.0-1.2","null","<span style='color:GreenYellow; font-size: 70px;'>正确! </span>","null","","","","","","","","","","","","","","","","","","","","","","","","","feedback_test","",""
"","","","","","psychophysics","116","490123","0.0-9.0-0.0-0.0-0.0-0.3","1208","","arrowleft","","","","","","","","","","","","","key","arrowleft","16.66793893129771","768","402","arrowleft","true","../../test_img/19.png","生人","matching_task","朋友","[""<img src=\""../../test_img/12.png\"" width=150 style=\""vertical-align:middle\"">---生人"",""<img src=\""../../test_img/25.png\"" width=150 style=\""vertical-align:middle\"">---自我"",""<img src=\""../../test_img/19.png\"" width=150 style=\""vertical-align:middle\"">---朋友""]","","",""
"","","","","","html-keyboard-response","117","490633","0.0-9.0-0.0-0.0-0.0-1.3","null","<span style='color:GreenYellow; font-size: 70px;'>正确! </span>","null","","","","","","","","","","","","","","","","","","","","","","","","","feedback_test","",""
"","","","","","psychophysics","118","492339","0.0-9.0-0.0-0.0-0.0-0.4","697","","arrowright","","","","","","","","","","","","","key","arrowright","16.667326732672922","768","402","arrowright","true","../../test_img/25.png","自我","matching_task","自我","[""<img src=\""../../test_img/12.png\"" width=150 style=\""vertical-align:middle\"">---生人"",""<img src=\""../../test_img/25.png\"" width=150 style=\""vertical-align:middle\"">---自我"",""<img src=\""../../test_img/19.png\"" width=150 style=\""vertical-align:middle\"">---朋友""]","","",""
"","","","","","html-keyboard-response","119","492844","0.0-9.0-0.0-0.0-0.0-1.4","null","<span style='color:GreenYellow; font-size: 70px;'>正确! </span>","null","","","","","","","","","","","","","","","","","","","","","","","","","feedback_test","",""
"","","","","","psychophysics","120","494601","0.0-9.0-0.0-0.0-0.0-0.5","755","","arrowleft","","","","","","","","","","","","","key","arrowleft","16.664423076923413","768","402","arrowleft","true","../../test_img/12.png","自我","matching_task","生人","[""<img src=\""../../test_img/12.png\"" width=150 style=\""vertical-align:middle\"">---生人"",""<img src=\""../../test_img/25.png\"" width=150 style=\""vertical-align:middle\"">---自我"",""<img src=\""../../test_img/19.png\"" width=150 style=\""vertical-align:middle\"">---朋友""]","","",""
"","","","","","html-keyboard-response","121","495105","0.0-9.0-0.0-0.0-0.0-1.5","null","<span style='color:GreenYellow; font-size: 70px;'>正确! </span>","null","","","","","","","","","","","","","","","","","","","","","","","","","feedback_test","",""
"","","","","","psychophysics","122","496914","0.0-9.0-0.0-0.0-0.0-0.6","806","","arrowright","","","","","","","","","","","","","key","arrowright","16.662037037037038","768","402","arrowright","true","../../test_img/12.png","生人","matching_task","生人","[""<img src=\""../../test_img/12.png\"" width=150 style=\""vertical-align:middle\"">---生人"",""<img src=\""../../test_img/25.png\"" width=150 style=\""vertical-align:middle\"">---自我"",""<img src=\""../../test_img/19.png\"" width=150 style=\""vertical-align:middle\"">---朋友""]","","",""
"","","","","","html-keyboard-response","123","497420","0.0-9.0-0.0-0.0-0.0-1.6","null","<span style='color:GreenYellow; font-size: 70px;'>正确! </span>","null","","","","","","","","","","","","","","","","","","","","","","","","","feedback_test","",""
"","","","","","psychophysics","124","499288","0.0-9.0-0.0-0.0-0.0-0.7","862","","arrowright","","","","","","","","","","","","","key","arrowright","16.669369369369264","768","402","arrowright","true","../../test_img/19.png","朋友","matching_task","朋友","[""<img src=\""../../test_img/12.png\"" width=150 style=\""vertical-align:middle\"">---生人"",""<img src=\""../../test_img/25.png\"" width=150 style=\""vertical-align:middle\"">---自我"",""<img src=\""../../test_img/19.png\"" width=150 style=\""vertical-align:middle\"">---朋友""]","","",""
"","","","","","html-keyboard-response","125","499796","0.0-9.0-0.0-0.0-0.0-1.7","null","<span style='color:GreenYellow; font-size: 70px;'>正确! </span>","null","","","","","","","","","","","","","","","","","","","","","","","","","feedback_test","",""
"","","","","","psychophysics","126","501502","0.0-9.0-0.0-0.0-0.0-0.8","694","","arrowright","","","","","","","","","","","","","key","arrowright","16.66534653465358","768","402","arrowright","true","../../test_img/25.png","自我","matching_task","自我","[""<img src=\""../../test_img/12.png\"" width=150 style=\""vertical-align:middle\"">---生人"",""<img src=\""../../test_img/25.png\"" width=150 style=\""vertical-align:middle\"">---自我"",""<img src=\""../../test_img/19.png\"" width=150 style=\""vertical-align:middle\"">---朋友""]","","",""
"","","","","","html-keyboard-response","127","502009","0.0-9.0-0.0-0.0-0.0-1.8","null","<span style='color:GreenYellow; font-size: 70px;'>正确! </span>","null","","","","","","","","","","","","","","","","","","","","","","","","","feedback_test","",""
"","","","","","psychophysics","128","503713","0.0-9.0-0.0-0.0-0.0-0.9","702","","arrowleft","","","","","","","","","","","","","key","arrowleft","16.599009900990097","768","402","arrowleft","true","../../test_img/12.png","朋友","matching_task","生人","[""<img src=\""../../test_img/12.png\"" width=150 style=\""vertical-align:middle\"">---生人"",""<img src=\""../../test_img/25.png\"" width=150 style=\""vertical-align:middle\"">---自我"",""<img src=\""../../test_img/19.png\"" width=150 style=\""vertical-align:middle\"">---朋友""]","","",""
"","","","","","html-keyboard-response","129","504221","0.0-9.0-0.0-0.0-0.0-1.9","null","<span style='color:GreenYellow; font-size: 70px;'>正确! </span>","null","","","","","","","","","","","","","","","","","","","","","","","","","feedback_test","",""
"","","","","","psychophysics","130","506224","0.0-9.0-0.0-0.0-0.0-0.10","998","","arrowright","","","","","","","","","","","","","key","arrowright","16.66722689075601","768","402","arrowleft","false","../../test_img/19.png","自我","matching_task","朋友","[""<img src=\""../../test_img/12.png\"" width=150 style=\""vertical-align:middle\"">---生人"",""<img src=\""../../test_img/25.png\"" width=150 style=\""vertical-align:middle\"">---自我"",""<img src=\""../../test_img/19.png\"" width=150 style=\""vertical-align:middle\"">---朋友""]","","",""
"","","","","","html-keyboard-response","131","506731","0.0-9.0-0.0-0.0-0.0-1.10","null","<span style='color:red; font-size: 70px;'>错误! </span>","null","","","","","","","","","","","","","","","","","","","","","","","","","feedback_test","",""
"","","","","","psychophysics","132","508573","0.0-9.0-0.0-0.0-0.0-0.11","831","","arrowright","","","","","","","","","","","","","key","arrowright","16.664220183486453","768","402","arrowleft","false","../../test_img/25.png","朋友","matching_task","自我","[""<img src=\""../../test_img/12.png\"" width=150 style=\""vertical-align:middle\"">---生人"",""<img src=\""../../test_img/25.png\"" width=150 style=\""vertical-align:middle\"">---自我"",""<img src=\""../../test_img/19.png\"" width=150 style=\""vertical-align:middle\"">---朋友""]","","",""
"","","","","","html-keyboard-response","133","509083","0.0-9.0-0.0-0.0-0.0-1.11","null","<span style='color:red; font-size: 70px;'>错误! </span>","null","","","","","","","","","","","","","","","","","","","","","","","","","feedback_test","",""
"","","","","","psychophysics","134","511028","0.0-9.0-0.0-0.0-0.0-0.12","943","","arrowleft","","","","","","","","","","","","","key","arrowleft","16.665517241378907","768","402","arrowleft","true","../../test_img/25.png","生人","matching_task","自我","[""<img src=\""../../test_img/12.png\"" width=150 style=\""vertical-align:middle\"">---生人"",""<img src=\""../../test_img/25.png\"" width=150 style=\""vertical-align:middle\"">---自我"",""<img src=\""../../test_img/19.png\"" width=150 style=\""vertical-align:middle\"">---朋友""]","","",""
"","","","","","html-keyboard-response","135","511538","0.0-9.0-0.0-0.0-0.0-1.12","null","<span style='color:GreenYellow; font-size: 70px;'>正确! </span>","null","","","","","","","","","","","","","","","","","","","","","","","","","feedback_test","",""
"","","","","","psychophysics","136","513608","0.0-9.0-0.0-0.0-0.0-0.13","1065","","arrowright","","","","","","","","","","","","","key","arrowright","16.666666666666668","768","402","arrowright","true","../../test_img/25.png","自我","matching_task","自我","[""<img src=\""../../test_img/12.png\"" width=150 style=\""vertical-align:middle\"">---生人"",""<img src=\""../../test_img/25.png\"" width=150 style=\""vertical-align:middle\"">---自我"",""<img src=\""../../test_img/19.png\"" width=150 style=\""vertical-align:middle\"">---朋友""]","","",""
"","","","","","html-keyboard-response","137","514111","0.0-9.0-0.0-0.0-0.0-1.13","null","<span style='color:GreenYellow; font-size: 70px;'>正确! </span>","null","","","","","","","","","","","","","","","","","","","","","","","","","feedback_test","",""
"","","","","","psychophysics","138","516270","0.0-9.0-0.0-0.0-0.0-0.14","1151","","arrowleft","","","","","","","","","","","","","key","arrowleft","16.6640625","768","402","arrowleft","true","../../test_img/19.png","生人","matching_task","朋友","[""<img src=\""../../test_img/12.png\"" width=150 style=\""vertical-align:middle\"">---生人"",""<img src=\""../../test_img/25.png\"" width=150 style=\""vertical-align:middle\"">---自我"",""<img src=\""../../test_img/19.png\"" width=150 style=\""vertical-align:middle\"">---朋友""]","","",""
"","","","","","html-keyboard-response","139","516779","0.0-9.0-0.0-0.0-0.0-1.14","null","<span style='color:GreenYellow; font-size: 70px;'>正确! </span>","null","","","","","","","","","","","","","","","","","","","","","","","","","feedback_test","",""
"","","","","","psychophysics","140","518563","0.0-9.0-0.0-0.0-0.0-0.15","772","","arrowright","","","","","","","","","","","","","key","arrowright","16.66886792452852","768","402","arrowleft","false","../../test_img/25.png","朋友","matching_task","自我","[""<img src=\""../../test_img/12.png\"" width=150 style=\""vertical-align:middle\"">---生人"",""<img src=\""../../test_img/25.png\"" width=150 style=\""vertical-align:middle\"">---自我"",""<img src=\""../../test_img/19.png\"" width=150 style=\""vertical-align:middle\"">---朋友""]","","",""
"","","","","","html-keyboard-response","141","519067","0.0-9.0-0.0-0.0-0.0-1.15","null","<span style='color:red; font-size: 70px;'>错误! </span>","null","","","","","","","","","","","","","","","","","","","","","","","","","feedback_test","",""
"","","","","","psychophysics","142","520690","0.0-9.0-0.0-0.0-0.0-0.16","616","","arrowright","","","","","","","","","","","","","key","arrowright","16.666666666666668","768","402","arrowright","true","../../test_img/19.png","朋友","matching_task","朋友","[""<img src=\""../../test_img/12.png\"" width=150 style=\""vertical-align:middle\"">---生人"",""<img src=\""../../test_img/25.png\"" width=150 style=\""vertical-align:middle\"">---自我"",""<img src=\""../../test_img/19.png\"" width=150 style=\""vertical-align:middle\"">---朋友""]","","",""
"","","","","","html-keyboard-response","143","521196","0.0-9.0-0.0-0.0-0.0-1.16","null","<span style='color:GreenYellow; font-size: 70px;'>正确! </span>","null","","","","","","","","","","","","","","","","","","","","","","","","","feedback_test","",""
"","","","","","psychophysics","144","522905","0.0-9.0-0.0-0.0-0.0-0.17","698","","arrowleft","","","","","","","","","","","","","key","arrowleft","16.665346534653004","768","402","arrowright","false","../../test_img/25.png","自我","matching_task","自我","[""<img src=\""../../test_img/12.png\"" width=150 style=\""vertical-align:middle\"">---生人"",""<img src=\""../../test_img/25.png\"" width=150 style=\""vertical-align:middle\"">---自我"",""<img src=\""../../test_img/19.png\"" width=150 style=\""vertical-align:middle\"">---朋友""]","","",""
"","","","","","html-keyboard-response","145","523412","0.0-9.0-0.0-0.0-0.0-1.17","null","<span style='color:red; font-size: 70px;'>错误! </span>","null","","","","","","","","","","","","","","","","","","","","","","","","","feedback_test","",""
"","","","","","psychophysics","146","525429","0.0-9.0-0.0-0.0-0.0-0.18","1011","","arrowright","","","","","","","","","","","","","key","arrowright","16.666666666666668","768","402","arrowleft","false","../../test_img/12.png","朋友","matching_task","生人","[""<img src=\""../../test_img/12.png\"" width=150 style=\""vertical-align:middle\"">---生人"",""<img src=\""../../test_img/25.png\"" width=150 style=\""vertical-align:middle\"">---自我"",""<img src=\""../../test_img/19.png\"" width=150 style=\""vertical-align:middle\"">---朋友""]","","",""
"","","","","","html-keyboard-response","147","525931","0.0-9.0-0.0-0.0-0.0-1.18","null","<span style='color:red; font-size: 70px;'>错误! </span>","null","","","","","","","","","","","","","","","","","","","","","","","","","feedback_test","",""
"","","","","","psychophysics","148","528170","0.0-9.0-0.0-0.0-0.0-0.19","1228","","arrowright","","","","","","","","","","","","","key","arrowright","16.663157894736493","768","402","arrowright","true","../../test_img/12.png","生人","matching_task","生人","[""<img src=\""../../test_img/12.png\"" width=150 style=\""vertical-align:middle\"">---生人"",""<img src=\""../../test_img/25.png\"" width=150 style=\""vertical-align:middle\"">---自我"",""<img src=\""../../test_img/19.png\"" width=150 style=\""vertical-align:middle\"">---朋友""]","","",""
"","","","","","html-keyboard-response","149","528676","0.0-9.0-0.0-0.0-0.0-1.19","null","<span style='color:GreenYellow; font-size: 70px;'>正确! </span>","null","","","","","","","","","","","","","","","","","","","","","","","","","feedback_test","",""
"","","","","","psychophysics","150","530604","0.0-9.0-0.0-0.0-0.0-0.20","915","","arrowright","","","","","","","","","","","","","key","arrowright","16.663157894737658","768","402","arrowright","true","../../test_img/19.png","朋友","matching_task","朋友","[""<img src=\""../../test_img/12.png\"" width=150 style=\""vertical-align:middle\"">---生人"",""<img src=\""../../test_img/25.png\"" width=150 style=\""vertical-align:middle\"">---自我"",""<img src=\""../../test_img/19.png\"" width=150 style=\""vertical-align:middle\"">---朋友""]","","",""
"","","","","","html-keyboard-response","151","531111","0.0-9.0-0.0-0.0-0.0-1.20","null","<span style='color:GreenYellow; font-size: 70px;'>正确! </span>","null","","","","","","","","","","","","","","","","","","","","","","","","","feedback_test","",""
"","","","","","psychophysics","152","533033","0.0-9.0-0.0-0.0-0.0-0.21","915","","arrowleft","","","","","","","","","","","","","key","arrowleft","16.666666666666668","768","402","arrowleft","true","../../test_img/19.png","自我","matching_task","朋友","[""<img src=\""../../test_img/12.png\"" width=150 style=\""vertical-align:middle\"">---生人"",""<img src=\""../../test_img/25.png\"" width=150 style=\""vertical-align:middle\"">---自我"",""<img src=\""../../test_img/19.png\"" width=150 style=\""vertical-align:middle\"">---朋友""]","","",""
"","","","","","html-keyboard-response","153","533539","0.0-9.0-0.0-0.0-0.0-1.21","null","<span style='color:GreenYellow; font-size: 70px;'>正确! </span>","null","","","","","","","","","","","","","","","","","","","","","","","","","feedback_test","",""
"","","","","","psychophysics","154","535511","0.0-9.0-0.0-0.0-0.0-0.22","969","","arrowleft","","","","","","","","","","","","","key","arrowleft","16.666101694915056","768","402","arrowleft","true","../../test_img/12.png","自我","matching_task","生人","[""<img src=\""../../test_img/12.png\"" width=150 style=\""vertical-align:middle\"">---生人"",""<img src=\""../../test_img/25.png\"" width=150 style=\""vertical-align:middle\"">---自我"",""<img src=\""../../test_img/19.png\"" width=150 style=\""vertical-align:middle\"">---朋友""]","","",""
"","","","","","html-keyboard-response","155","536015","0.0-9.0-0.0-0.0-0.0-1.22","null","<span style='color:GreenYellow; font-size: 70px;'>正确! </span>","null","","","","","","","","","","","","","","","","","","","","","","","","","feedback_test","",""
"","","","","","psychophysics","156","538148","0.0-9.0-0.0-0.0-0.0-0.23","1126","","arrowright","","","","","","","","","","","","","key","arrowright","16.664566929134043","768","402","arrowright","true","../../test_img/12.png","生人","matching_task","生人","[""<img src=\""../../test_img/12.png\"" width=150 style=\""vertical-align:middle\"">---生人"",""<img src=\""../../test_img/25.png\"" width=150 style=\""vertical-align:middle\"">---自我"",""<img src=\""../../test_img/19.png\"" width=150 style=\""vertical-align:middle\"">---朋友""]","","",""
"","","","","","html-keyboard-response","157","538654","0.0-9.0-0.0-0.0-0.0-1.23","null","<span style='color:GreenYellow; font-size: 70px;'>正确! </span>","null","","","","","","","","","","","","","","","","","","","","","","","","","feedback_test","",""
"","","","","","psychophysics","158","540568","0.0-9.0-0.0-0.0-0.0-0.24","908","","arrowleft","","","","","","","","","","","","","key","arrowleft","16.665789473684416","768","402","arrowleft","true","../../test_img/25.png","生人","matching_task","自我","[""<img src=\""../../test_img/12.png\"" width=150 style=\""vertical-align:middle\"">---生人"",""<img src=\""../../test_img/25.png\"" width=150 style=\""vertical-align:middle\"">---自我"",""<img src=\""../../test_img/19.png\"" width=150 style=\""vertical-align:middle\"">---朋友""]","","",""
"","","","","","html-keyboard-response","159","541069","0.0-9.0-0.0-0.0-0.0-1.24","null","<span style='color:GreenYellow; font-size: 70px;'>正确! </span>","null","","","","","","","","","","","","","","","","","","","","","","","","","feedback_test","",""
"","","","","","psychophysics","160","543150","0.0-9.0-0.0-0.0-0.0-0.25","1078","","arrowleft","","","","","","","","","","","","","key","arrowleft","16.666129032257878","768","402","arrowright","false","../../test_img/25.png","自我","matching_task","自我","[""<img src=\""../../test_img/12.png\"" width=150 style=\""vertical-align:middle\"">---生人"",""<img src=\""../../test_img/25.png\"" width=150 style=\""vertical-align:middle\"">---自我"",""<img src=\""../../test_img/19.png\"" width=150 style=\""vertical-align:middle\"">---朋友""]","","",""
"","","","","","html-keyboard-response","161","543651","0.0-9.0-0.0-0.0-0.0-1.25","null","<span style='color:red; font-size: 70px;'>错误! </span>","null","","","","","","","","","","","","","","","","","","","","","","","","","feedback_test","",""
"","","","","","psychophysics","162","545449","0.0-9.0-0.0-0.0-0.0-0.26","794","","arrowleft","","","","","","","","","","","","","key","arrowleft","16.66355140186916","768","402","arrowleft","true","../../test_img/19.png","自我","matching_task","朋友","[""<img src=\""../../test_img/12.png\"" width=150 style=\""vertical-align:middle\"">---生人"",""<img src=\""../../test_img/25.png\"" width=150 style=\""vertical-align:middle\"">---自我"",""<img src=\""../../test_img/19.png\"" width=150 style=\""vertical-align:middle\"">---朋友""]","","",""
"","","","","","html-keyboard-response","163","545951","0.0-9.0-0.0-0.0-0.0-1.26","null","<span style='color:GreenYellow; font-size: 70px;'>正确! </span>","null","","","","","","","","","","","","","","","","","","","","","","","","","feedback_test","",""
"","","","","","psychophysics","164","547725","0.0-9.0-0.0-0.0-0.0-0.27","770","","arrowright","","","","","","","","","","","","","key","arrowright","16.66285714285692","768","402","arrowright","true","../../test_img/19.png","朋友","matching_task","朋友","[""<img src=\""../../test_img/12.png\"" width=150 style=\""vertical-align:middle\"">---生人"",""<img src=\""../../test_img/25.png\"" width=150 style=\""vertical-align:middle\"">---自我"",""<img src=\""../../test_img/19.png\"" width=150 style=\""vertical-align:middle\"">---朋友""]","","",""
"","","","","","html-keyboard-response","165","548236","0.0-9.0-0.0-0.0-0.0-1.27","null","<span style='color:GreenYellow; font-size: 70px;'>正确! </span>","null","","","","","","","","","","","","","","","","","","","","","","","","","feedback_test","",""
"","","","","","psychophysics","166","550351","0.0-9.0-0.0-0.0-0.0-0.28","1113","","arrowright","","","","","","","","","","","","","key","arrowright","16.665873015872275","768","402","arrowright","true","../../test_img/12.png","生人","matching_task","生人","[""<img src=\""../../test_img/12.png\"" width=150 style=\""vertical-align:middle\"">---生人"",""<img src=\""../../test_img/25.png\"" width=150 style=\""vertical-align:middle\"">---自我"",""<img src=\""../../test_img/19.png\"" width=150 style=\""vertical-align:middle\"">---朋友""]","","",""
"","","","","","html-keyboard-response","167","550853","0.0-9.0-0.0-0.0-0.0-1.28","null","<span style='color:GreenYellow; font-size: 70px;'>正确! </span>","null","","","","","","","","","","","","","","","","","","","","","","","","","feedback_test","",""
"","","","","","psychophysics","168","553161","0.0-9.0-0.0-0.0-0.0-0.29","1303","","arrowright","","","","","","","","","","","","","key","arrowright","16.66536231884105","768","402","arrowright","true","../../test_img/19.png","朋友","matching_task","朋友","[""<img src=\""../../test_img/12.png\"" width=150 style=\""vertical-align:middle\"">---生人"",""<img src=\""../../test_img/25.png\"" width=150 style=\""vertical-align:middle\"">---自我"",""<img src=\""../../test_img/19.png\"" width=150 style=\""vertical-align:middle\"">---朋友""]","","",""
"","","","","","html-keyboard-response","169","553672","0.0-9.0-0.0-0.0-0.0-1.29","null","<span style='color:GreenYellow; font-size: 70px;'>正确! </span>","null","","","","","","","","","","","","","","","","","","","","","","","","","feedback_test","",""
"","","","","","psychophysics","170","555635","0.0-9.0-0.0-0.0-0.0-0.30","960","","arrowleft","","","","","","","","","","","","","key","arrowleft","16.665811965812164","768","402","arrowleft","true","../../test_img/12.png","朋友","matching_task","生人","[""<img src=\""../../test_img/12.png\"" width=150 style=\""vertical-align:middle\"">---生人"",""<img src=\""../../test_img/25.png\"" width=150 style=\""vertical-align:middle\"">---自我"",""<img src=\""../../test_img/19.png\"" width=150 style=\""vertical-align:middle\"">---朋友""]","","",""
"","","","","","html-keyboard-response","171","556137","0.0-9.0-0.0-0.0-0.0-1.30","null","<span style='color:GreenYellow; font-size: 70px;'>正确! </span>","null","","","","","","","","","","","","","","","","","","","","","","","","","feedback_test","",""
"","","","","","psychophysics","172","558166","0.0-9.0-0.0-0.0-0.0-0.31","1025","","arrowright","","","","","","","","","","","","","key","arrowright","16.668595041322508","768","402","arrowleft","false","../../test_img/25.png","朋友","matching_task","自我","[""<img src=\""../../test_img/12.png\"" width=150 style=\""vertical-align:middle\"">---生人"",""<img src=\""../../test_img/25.png\"" width=150 style=\""vertical-align:middle\"">---自我"",""<img src=\""../../test_img/19.png\"" width=150 style=\""vertical-align:middle\"">---朋友""]","","",""
"","","","","","html-keyboard-response","173","558671","0.0-9.0-0.0-0.0-0.0-1.31","null","<span style='color:red; font-size: 70px;'>错误! </span>","null","","","","","","","","","","","","","","","","","","","","","","","","","feedback_test","",""
"","","","","","psychophysics","174","560629","0.0-9.0-0.0-0.0-0.0-0.32","952","","arrowleft","","","","","","","","","","","","","key","arrowleft","16.807758620689253","768","402","arrowleft","true","../../test_img/19.png","生人","matching_task","朋友","[""<img src=\""../../test_img/12.png\"" width=150 style=\""vertical-align:middle\"">---生人"",""<img src=\""../../test_img/25.png\"" width=150 style=\""vertical-align:middle\"">---自我"",""<img src=\""../../test_img/19.png\"" width=150 style=\""vertical-align:middle\"">---朋友""]","","",""
"","","","","","html-keyboard-response","175","561136","0.0-9.0-0.0-0.0-0.0-1.32","null","<span style='color:GreenYellow; font-size: 70px;'>正确! </span>","null","","","","","","","","","","","","","","","","","","","","","","","","","feedback_test","",""
"","","","","","psychophysics","176","562956","0.0-9.0-0.0-0.0-0.0-0.33","817","","arrowleft","","","","","","","","","","","","","key","arrowleft","16.666666666666668","768","402","arrowleft","true","../../test_img/12.png","自我","matching_task","生人","[""<img src=\""../../test_img/12.png\"" width=150 style=\""vertical-align:middle\"">---生人"",""<img src=\""../../test_img/25.png\"" width=150 style=\""vertical-align:middle\"">---自我"",""<img src=\""../../test_img/19.png\"" width=150 style=\""vertical-align:middle\"">---朋友""]","","",""
"","","","","","html-keyboard-response","177","563460","0.0-9.0-0.0-0.0-0.0-1.33","null","<span style='color:GreenYellow; font-size: 70px;'>正确! </span>","null","","","","","","","","","","","","","","","","","","","","","","","","","feedback_test","",""
"","","","","","psychophysics","178","565878","0.0-9.0-0.0-0.0-0.0-0.34","1415","","arrowleft","","","","","","","","","","","","","key","arrowleft","16.665972222222383","768","402","arrowright","false","../../test_img/25.png","自我","matching_task","自我","[""<img src=\""../../test_img/12.png\"" width=150 style=\""vertical-align:middle\"">---生人"",""<img src=\""../../test_img/25.png\"" width=150 style=\""vertical-align:middle\"">---自我"",""<img src=\""../../test_img/19.png\"" width=150 style=\""vertical-align:middle\"">---朋友""]","","",""
"","","","","","html-keyboard-response","179","566386","0.0-9.0-0.0-0.0-0.0-1.34","null","<span style='color:red; font-size: 70px;'>错误! </span>","null","","","","","","","","","","","","","","","","","","","","","","","","","feedback_test","",""
"","","","","","psychophysics","180","568265","0.0-9.0-0.0-0.0-0.0-0.35","874","","arrowleft","","","","","","","","","","","","","key","arrowleft","16.66607142857122","768","402","arrowright","false","../../test_img/12.png","生人","matching_task","生人","[""<img src=\""../../test_img/12.png\"" width=150 style=\""vertical-align:middle\"">---生人"",""<img src=\""../../test_img/25.png\"" width=150 style=\""vertical-align:middle\"">---自我"",""<img src=\""../../test_img/19.png\"" width=150 style=\""vertical-align:middle\"">---朋友""]","","",""
"","","","","","html-keyboard-response","181","568772","0.0-9.0-0.0-0.0-0.0-1.35","null","<span style='color:red; font-size: 70px;'>错误! </span>","null","","","","","","","","","","","","","","","","","","","","","","","","","feedback_test","",""
"","","","","","psychophysics","182","570666","0.0-9.0-0.0-0.0-0.0-0.36","891","","arrowright","","","","","","","","","","","","","key","arrowright","16.664778761061907","768","402","arrowright","true","../../test_img/19.png","朋友","matching_task","朋友","[""<img src=\""../../test_img/12.png\"" width=150 style=\""vertical-align:middle\"">---生人"",""<img src=\""../../test_img/25.png\"" width=150 style=\""vertical-align:middle\"">---自我"",""<img src=\""../../test_img/19.png\"" width=150 style=\""vertical-align:middle\"">---朋友""]","","",""
"","","","","","html-keyboard-response","183","571172","0.0-9.0-0.0-0.0-0.0-1.36","null","<span style='color:GreenYellow; font-size: 70px;'>正确! </span>","null","","","","","","","","","","","","","","","","","","","","","","","","","feedback_test","",""
"","","","","","psychophysics","184","573269","0.0-9.0-0.0-0.0-0.0-0.37","1095","","arrowright","","","","","","","","","","","","","key","arrowright","16.66495999999996","768","402","arrowright","true","../../test_img/19.png","朋友","matching_task","朋友","[""<img src=\""../../test_img/12.png\"" width=150 style=\""vertical-align:middle\"">---生人"",""<img src=\""../../test_img/25.png\"" width=150 style=\""vertical-align:middle\"">---自我"",""<img src=\""../../test_img/19.png\"" width=150 style=\""vertical-align:middle\"">---朋友""]","","",""
"","","","","","html-keyboard-response","185","573778","0.0-9.0-0.0-0.0-0.0-1.37","null","<span style='color:GreenYellow; font-size: 70px;'>正确! </span>","null","","","","","","","","","","","","","","","","","","","","","","","","","feedback_test","",""
"","","","","","psychophysics","186","575971","0.0-9.0-0.0-0.0-0.0-0.38","1184","","arrowleft","","","","","","","","","","","","","key","arrowleft","16.664615384615562","768","402","arrowleft","true","../../test_img/19.png","生人","matching_task","朋友","[""<img src=\""../../test_img/12.png\"" width=150 style=\""vertical-align:middle\"">---生人"",""<img src=\""../../test_img/25.png\"" width=150 style=\""vertical-align:middle\"">---自我"",""<img src=\""../../test_img/19.png\"" width=150 style=\""vertical-align:middle\"">---朋友""]","","",""
"","","","","","html-keyboard-response","187","576475","0.0-9.0-0.0-0.0-0.0-1.38","null","<span style='color:GreenYellow; font-size: 70px;'>正确! </span>","null","","","","","","","","","","","","","","","","","","","","","","","","","feedback_test","",""
"","","","","","psychophysics","188","578307","0.0-9.0-0.0-0.0-0.0-0.39","823","","arrowleft","","","","","","","","","","","","","key","arrowleft","16.665740740740958","768","402","arrowleft","true","../../test_img/25.png","生人","matching_task","自我","[""<img src=\""../../test_img/12.png\"" width=150 style=\""vertical-align:middle\"">---生人"",""<img src=\""../../test_img/25.png\"" width=150 style=\""vertical-align:middle\"">---自我"",""<img src=\""../../test_img/19.png\"" width=150 style=\""vertical-align:middle\"">---朋友""]","","",""
"","","","","","html-keyboard-response","189","578810","0.0-9.0-0.0-0.0-0.0-1.39","null","<span style='color:GreenYellow; font-size: 70px;'>正确! </span>","null","","","","","","","","","","","","","","","","","","","","","","","","","feedback_test","",""
"","","","","","psychophysics","190","580913","0.0-9.0-0.0-0.0-0.0-0.40","1095","","arrowleft","","","","","","","","","","","","","key","arrowleft","16.66239999999944","768","402","arrowleft","true","../../test_img/25.png","朋友","matching_task","自我","[""<img src=\""../../test_img/12.png\"" width=150 style=\""vertical-align:middle\"">---生人"",""<img src=\""../../test_img/25.png\"" width=150 style=\""vertical-align:middle\"">---自我"",""<img src=\""../../test_img/19.png\"" width=150 style=\""vertical-align:middle\"">---朋友""]","","",""
"","","","","","html-keyboard-response","191","581414","0.0-9.0-0.0-0.0-0.0-1.40","null","<span style='color:GreenYellow; font-size: 70px;'>正确! </span>","null","","","","","","","","","","","","","","","","","","","","","","","","","feedback_test","",""
"","","","","","psychophysics","192","583107","0.0-9.0-0.0-0.0-0.0-0.41","685","","arrowright","","","","","","","","","","","","","key","arrowright","16.66420000000042","768","402","arrowright","true","../../test_img/25.png","自我","matching_task","自我","[""<img src=\""../../test_img/12.png\"" width=150 style=\""vertical-align:middle\"">---生人"",""<img src=\""../../test_img/25.png\"" width=150 style=\""vertical-align:middle\"">---自我"",""<img src=\""../../test_img/19.png\"" width=150 style=\""vertical-align:middle\"">---朋友""]","","",""
"","","","","","html-keyboard-response","193","583608","0.0-9.0-0.0-0.0-0.0-1.41","null","<span style='color:GreenYellow; font-size: 70px;'>正确! </span>","null","","","","","","","","","","","","","","","","","","","","","","","","","feedback_test","",""
"","","","","","psychophysics","194","585648","0.0-9.0-0.0-0.0-0.0-0.42","1038","","arrowleft","","","","","","","","","","","","","key","arrowleft","16.665289256198346","768","402","arrowleft","true","../../test_img/12.png","自我","matching_task","生人","[""<img src=\""../../test_img/12.png\"" width=150 style=\""vertical-align:middle\"">---生人"",""<img src=\""../../test_img/25.png\"" width=150 style=\""vertical-align:middle\"">---自我"",""<img src=\""../../test_img/19.png\"" width=150 style=\""vertical-align:middle\"">---朋友""]","","",""
"","","","","","html-keyboard-response","195","586156","0.0-9.0-0.0-0.0-0.0-1.42","null","<span style='color:GreenYellow; font-size: 70px;'>正确! </span>","null","","","","","","","","","","","","","","","","","","","","","","","","","feedback_test","",""
"","","","","","psychophysics","196","588175","0.0-9.0-0.0-0.0-0.0-0.43","1018","","arrowleft","","","","","","","","","","","","","key","arrowleft","16.665000000000386","768","402","arrowleft","true","../../test_img/19.png","自我","matching_task","朋友","[""<img src=\""../../test_img/12.png\"" width=150 style=\""vertical-align:middle\"">---生人"",""<img src=\""../../test_img/25.png\"" width=150 style=\""vertical-align:middle\"">---自我"",""<img src=\""../../test_img/19.png\"" width=150 style=\""vertical-align:middle\"">---朋友""]","","",""
"","","","","","html-keyboard-response","197","588680","0.0-9.0-0.0-0.0-0.0-1.43","null","<span style='color:GreenYellow; font-size: 70px;'>正确! </span>","null","","","","","","","","","","","","","","","","","","","","","","","","","feedback_test","",""
"","","","","","psychophysics","198","590822","0.0-9.0-0.0-0.0-0.0-0.44","1139","","arrowleft","","","","","","","","","","","","","key","arrowleft","16.668503937008058","768","402","arrowleft","true","../../test_img/12.png","朋友","matching_task","生人","[""<img src=\""../../test_img/12.png\"" width=150 style=\""vertical-align:middle\"">---生人"",""<img src=\""../../test_img/25.png\"" width=150 style=\""vertical-align:middle\"">---自我"",""<img src=\""../../test_img/19.png\"" width=150 style=\""vertical-align:middle\"">---朋友""]","","",""
"","","","","","html-keyboard-response","199","591331","0.0-9.0-0.0-0.0-0.0-1.44","null","<span style='color:GreenYellow; font-size: 70px;'>正确! </span>","null","","","","","","","","","","","","","","","","","","","","","","","","","feedback_test","",""
"","","","","","psychophysics","200","593067","0.0-9.0-0.0-0.0-0.0-0.45","731","","arrowright","","","","","","","","","","","","","key","arrowright","16.666990291261683","768","402","arrowright","true","../../test_img/25.png","自我","matching_task","自我","[""<img src=\""../../test_img/12.png\"" width=150 style=\""vertical-align:middle\"">---生人"",""<img src=\""../../test_img/25.png\"" width=150 style=\""vertical-align:middle\"">---自我"",""<img src=\""../../test_img/19.png\"" width=150 style=\""vertical-align:middle\"">---朋友""]","","",""
"","","","","","html-keyboard-response","201","593572","0.0-9.0-0.0-0.0-0.0-1.45","null","<span style='color:GreenYellow; font-size: 70px;'>正确! </span>","null","","","","","","","","","","","","","","","","","","","","","","","","","feedback_test","",""
"","","","","","psychophysics","202","595457","0.0-9.0-0.0-0.0-0.0-0.46","884","","arrowright","","","","","","","","","","","","","key","arrowright","16.665178571428573","768","402","arrowright","true","../../test_img/12.png","生人","matching_task","生人","[""<img src=\""../../test_img/12.png\"" width=150 style=\""vertical-align:middle\"">---生人"",""<img src=\""../../test_img/25.png\"" width=150 style=\""vertical-align:middle\"">---自我"",""<img src=\""../../test_img/19.png\"" width=150 style=\""vertical-align:middle\"">---朋友""]","","",""
"","","","","","html-keyboard-response","203","595967","0.0-9.0-0.0-0.0-0.0-1.46","null","<span style='color:GreenYellow; font-size: 70px;'>正确! </span>","null","","","","","","","","","","","","","","","","","","","","","","","","","feedback_test","",""
"","","","","","psychophysics","204","597876","0.0-9.0-0.0-0.0-0.0-0.47","903","","arrowright","","","","","","","","","","","","","key","arrowright","16.665789473684416","768","402","arrowright","true","../../test_img/12.png","生人","matching_task","生人","[""<img src=\""../../test_img/12.png\"" width=150 style=\""vertical-align:middle\"">---生人"",""<img src=\""../../test_img/25.png\"" width=150 style=\""vertical-align:middle\"">---自我"",""<img src=\""../../test_img/19.png\"" width=150 style=\""vertical-align:middle\"">---朋友""]","","",""
"","","","","","html-keyboard-response","205","598382","0.0-9.0-0.0-0.0-0.0-1.47","null","<span style='color:GreenYellow; font-size: 70px;'>正确! </span>","null","","","","","","","","","","","","","","","","","","","","","","","","","feedback_test","",""
"","","","","","psychophysics","206","600001","0.0-9.0-0.0-0.0-0.0-0.48","615","","arrowleft","","","","","","","","","","","","","key","arrowleft","16.665625000000244","768","402","arrowright","false","../../test_img/25.png","自我","matching_task","自我","[""<img src=\""../../test_img/12.png\"" width=150 style=\""vertical-align:middle\"">---生人"",""<img src=\""../../test_img/25.png\"" width=150 style=\""vertical-align:middle\"">---自我"",""<img src=\""../../test_img/19.png\"" width=150 style=\""vertical-align:middle\"">---朋友""]","","",""
"","","","","","html-keyboard-response","207","600503","0.0-9.0-0.0-0.0-0.0-1.48","null","<span style='color:red; font-size: 70px;'>错误! </span>","null","","","","","","","","","","","","","","","","","","","","","","","","","feedback_test","",""
"","","","","","psychophysics","208","602620","0.0-9.0-0.0-0.0-0.0-0.49","1115","","arrowleft","","","","","","","","","","","","","key","arrowleft","16.666031746031155","768","402","arrowleft","true","../../test_img/19.png","自我","matching_task","朋友","[""<img src=\""../../test_img/12.png\"" width=150 style=\""vertical-align:middle\"">---生人"",""<img src=\""../../test_img/25.png\"" width=150 style=\""vertical-align:middle\"">---自我"",""<img src=\""../../test_img/19.png\"" width=150 style=\""vertical-align:middle\"">---朋友""]","","",""
"","","","","","html-keyboard-response","209","603122","0.0-9.0-0.0-0.0-0.0-1.49","null","<span style='color:GreenYellow; font-size: 70px;'>正确! </span>","null","","","","","","","","","","","","","","","","","","","","","","","","","feedback_test","",""
"","","","","","psychophysics","210","605026","0.0-9.0-0.0-0.0-0.0-0.50","902","","arrowleft","","","","","","","","","","","","","key","arrowleft","16.661061946902244","768","402","arrowleft","true","../../test_img/25.png","生人","matching_task","自我","[""<img src=\""../../test_img/12.png\"" width=150 style=\""vertical-align:middle\"">---生人"",""<img src=\""../../test_img/25.png\"" width=150 style=\""vertical-align:middle\"">---自我"",""<img src=\""../../test_img/19.png\"" width=150 style=\""vertical-align:middle\"">---朋友""]","","",""
"","","","","","html-keyboard-response","211","605529","0.0-9.0-0.0-0.0-0.0-1.50","null","<span style='color:GreenYellow; font-size: 70px;'>正确! </span>","null","","","","","","","","","","","","","","","","","","","","","","","","","feedback_test","",""
"","","","","","psychophysics","212","607397","0.0-9.0-0.0-0.0-0.0-0.51","862","","arrowright","","","","","","","","","","","","","key","arrowright","16.66696428571387","768","402","arrowright","true","../../test_img/12.png","生人","matching_task","生人","[""<img src=\""../../test_img/12.png\"" width=150 style=\""vertical-align:middle\"">---生人"",""<img src=\""../../test_img/25.png\"" width=150 style=\""vertical-align:middle\"">---自我"",""<img src=\""../../test_img/19.png\"" width=150 style=\""vertical-align:middle\"">---朋友""]","","",""
"","","","","","html-keyboard-response","213","607899","0.0-9.0-0.0-0.0-0.0-1.51","null","<span style='color:GreenYellow; font-size: 70px;'>正确! </span>","null","","","","","","","","","","","","","","","","","","","","","","","","","feedback_test","",""
"","","","","","psychophysics","214","609986","0.0-9.0-0.0-0.0-0.0-0.52","1080","","arrowleft","","","","","","","","","","","","","key","arrowleft","16.666129032257878","768","402","arrowleft","true","../../test_img/19.png","生人","matching_task","朋友","[""<img src=\""../../test_img/12.png\"" width=150 style=\""vertical-align:middle\"">---生人"",""<img src=\""../../test_img/25.png\"" width=150 style=\""vertical-align:middle\"">---自我"",""<img src=\""../../test_img/19.png\"" width=150 style=\""vertical-align:middle\"">---朋友""]","","",""
"","","","","","html-keyboard-response","215","610489","0.0-9.0-0.0-0.0-0.0-1.52","null","<span style='color:GreenYellow; font-size: 70px;'>正确! </span>","null","","","","","","","","","","","","","","","","","","","","","","","","","feedback_test","",""
"","","","","","psychophysics","216","612310","0.0-9.0-0.0-0.0-0.0-0.53","808","","arrowright","","","","","","","","","","","","","key","arrowright","16.666666666666668","768","402","arrowright","true","../../test_img/19.png","朋友","matching_task","朋友","[""<img src=\""../../test_img/12.png\"" width=150 style=\""vertical-align:middle\"">---生人"",""<img src=\""../../test_img/25.png\"" width=150 style=\""vertical-align:middle\"">---自我"",""<img src=\""../../test_img/19.png\"" width=150 style=\""vertical-align:middle\"">---朋友""]","","",""
"","","","","","html-keyboard-response","217","612813","0.0-9.0-0.0-0.0-0.0-1.53","null","<span style='color:GreenYellow; font-size: 70px;'>正确! </span>","null","","","","","","","","","","","","","","","","","","","","","","","","","feedback_test","",""
"","","","","","psychophysics","218","614994","0.0-9.0-0.0-0.0-0.0-0.54","1172","","arrowleft","","","","","","","","","","","","","key","arrowleft","16.661538461538463","768","402","arrowright","false","../../test_img/19.png","朋友","matching_task","朋友","[""<img src=\""../../test_img/12.png\"" width=150 style=\""vertical-align:middle\"">---生人"",""<img src=\""../../test_img/25.png\"" width=150 style=\""vertical-align:middle\"">---自我"",""<img src=\""../../test_img/19.png\"" width=150 style=\""vertical-align:middle\"">---朋友""]","","",""
"","","","","","html-keyboard-response","219","615498","0.0-9.0-0.0-0.0-0.0-1.54","null","<span style='color:red; font-size: 70px;'>错误! </span>","null","","","","","","","","","","","","","","","","","","","","","","","","","feedback_test","",""
"","","","","","psychophysics","220","617496","0.0-9.0-0.0-0.0-0.0-0.55","993","","arrowleft","","","","","","","","","","","","","key","arrowleft","16.668907563025016","768","402","arrowleft","true","../../test_img/12.png","自我","matching_task","生人","[""<img src=\""../../test_img/12.png\"" width=150 style=\""vertical-align:middle\"">---生人"",""<img src=\""../../test_img/25.png\"" width=150 style=\""vertical-align:middle\"">---自我"",""<img src=\""../../test_img/19.png\"" width=150 style=\""vertical-align:middle\"">---朋友""]","","",""
"","","","","","html-keyboard-response","221","618005","0.0-9.0-0.0-0.0-0.0-1.55","null","<span style='color:GreenYellow; font-size: 70px;'>正确! </span>","null","","","","","","","","","","","","","","","","","","","","","","","","","feedback_test","",""
"","","","","","psychophysics","222","619934","0.0-9.0-0.0-0.0-0.0-0.56","928","","arrowleft","","","","","","","","","","","","","key","arrowleft","16.665789473684416","768","402","arrowleft","true","../../test_img/25.png","朋友","matching_task","自我","[""<img src=\""../../test_img/12.png\"" width=150 style=\""vertical-align:middle\"">---生人"",""<img src=\""../../test_img/25.png\"" width=150 style=\""vertical-align:middle\"">---自我"",""<img src=\""../../test_img/19.png\"" width=150 style=\""vertical-align:middle\"">---朋友""]","","",""
"","","","","","html-keyboard-response","223","620442","0.0-9.0-0.0-0.0-0.0-1.56","null","<span style='color:GreenYellow; font-size: 70px;'>正确! </span>","null","","","","","","","","","","","","","","","","","","","","","","","","","feedback_test","",""
"","","","","","psychophysics","224","622331","0.0-9.0-0.0-0.0-0.0-0.57","883","","arrowright","","","","","","","","","","","","","key","arrowright","16.669642857142858","768","402","arrowright","true","../../test_img/25.png","自我","matching_task","自我","[""<img src=\""../../test_img/12.png\"" width=150 style=\""vertical-align:middle\"">---生人"",""<img src=\""../../test_img/25.png\"" width=150 style=\""vertical-align:middle\"">---自我"",""<img src=\""../../test_img/19.png\"" width=150 style=\""vertical-align:middle\"">---朋友""]","","",""
"","","","","","html-keyboard-response","225","622834","0.0-9.0-0.0-0.0-0.0-1.57","null","<span style='color:GreenYellow; font-size: 70px;'>正确! </span>","null","","","","","","","","","","","","","","","","","","","","","","","","","feedback_test","",""
"","","","","","psychophysics","226","624861","0.0-9.0-0.0-0.0-0.0-0.58","1023","","arrowright","","","","","","","","","","","","","key","arrowright","16.668595041322508","768","402","arrowright","true","../../test_img/12.png","生人","matching_task","生人","[""<img src=\""../../test_img/12.png\"" width=150 style=\""vertical-align:middle\"">---生人"",""<img src=\""../../test_img/25.png\"" width=150 style=\""vertical-align:middle\"">---自我"",""<img src=\""../../test_img/19.png\"" width=150 style=\""vertical-align:middle\"">---朋友""]","","",""
"","","","","","html-keyboard-response","227","625370","0.0-9.0-0.0-0.0-0.0-1.58","null","<span style='color:GreenYellow; font-size: 70px;'>正确! </span>","null","","","","","","","","","","","","","","","","","","","","","","","","","feedback_test","",""
"","","","","","psychophysics","228","627381","0.0-9.0-0.0-0.0-0.0-0.59","1009","","arrowright","","","","","","","","","","","","","key","arrowright","16.612605042017","768","402","arrowleft","false","../../test_img/12.png","朋友","matching_task","生人","[""<img src=\""../../test_img/12.png\"" width=150 style=\""vertical-align:middle\"">---生人"",""<img src=\""../../test_img/25.png\"" width=150 style=\""vertical-align:middle\"">---自我"",""<img src=\""../../test_img/19.png\"" width=150 style=\""vertical-align:middle\"">---朋友""]","","",""
"","","","","","html-keyboard-response","229","627887","0.0-9.0-0.0-0.0-0.0-1.59","null","<span style='color:red; font-size: 70px;'>错误! </span>","null","","","","","","","","","","","","","","","","","","","","","","","","","feedback_test","",""
"","","","","","psychophysics","230","630135","0.0-9.0-0.0-0.0-0.0-0.60","1246","","arrowright","","","","","","","","","","","","","key","arrowright","16.663157894737367","768","402","arrowright","true","../../test_img/25.png","自我","matching_task","自我","[""<img src=\""../../test_img/12.png\"" width=150 style=\""vertical-align:middle\"">---生人"",""<img src=\""../../test_img/25.png\"" width=150 style=\""vertical-align:middle\"">---自我"",""<img src=\""../../test_img/19.png\"" width=150 style=\""vertical-align:middle\"">---朋友""]","","",""
"","","","","","html-keyboard-response","231","630645","0.0-9.0-0.0-0.0-0.0-1.60","null","<span style='color:GreenYellow; font-size: 70px;'>正确! </span>","null","","","","","","","","","","","","","","","","","","","","","","","","","feedback_test","",""
"","","","","","psychophysics","232","632375","0.0-9.0-0.0-0.0-0.0-0.61","727","","arrowleft","","","","","","","","","","","","","key","arrowleft","16.662135922329647","768","402","arrowleft","true","../../test_img/12.png","朋友","matching_task","生人","[""<img src=\""../../test_img/12.png\"" width=150 style=\""vertical-align:middle\"">---生人"",""<img src=\""../../test_img/25.png\"" width=150 style=\""vertical-align:middle\"">---自我"",""<img src=\""../../test_img/19.png\"" width=150 style=\""vertical-align:middle\"">---朋友""]","","",""
"","","","","","html-keyboard-response","233","632879","0.0-9.0-0.0-0.0-0.0-1.61","null","<span style='color:GreenYellow; font-size: 70px;'>正确! </span>","null","","","","","","","","","","","","","","","","","","","","","","","","","feedback_test","",""
"","","","","","psychophysics","234","635172","0.0-9.0-0.0-0.0-0.0-0.62","1288","","arrowleft","","","","","","","","","","","","","key","arrowleft","16.666423357663724","768","402","arrowleft","true","../../test_img/12.png","自我","matching_task","生人","[""<img src=\""../../test_img/12.png\"" width=150 style=\""vertical-align:middle\"">---生人"",""<img src=\""../../test_img/25.png\"" width=150 style=\""vertical-align:middle\"">---自我"",""<img src=\""../../test_img/19.png\"" width=150 style=\""vertical-align:middle\"">---朋友""]","","",""
"","","","","","html-keyboard-response","235","635678","0.0-9.0-0.0-0.0-0.0-1.62","null","<span style='color:GreenYellow; font-size: 70px;'>正确! </span>","null","","","","","","","","","","","","","","","","","","","","","","","","","feedback_test","",""
"","","","","","psychophysics","236","637621","0.0-9.0-0.0-0.0-0.0-0.63","940","","arrowright","","","","","","","","","","","","","key","arrowright","16.66695652173974","768","402","arrowleft","false","../../test_img/25.png","生人","matching_task","自我","[""<img src=\""../../test_img/12.png\"" width=150 style=\""vertical-align:middle\"">---生人"",""<img src=\""../../test_img/25.png\"" width=150 style=\""vertical-align:middle\"">---自我"",""<img src=\""../../test_img/19.png\"" width=150 style=\""vertical-align:middle\"">---朋友""]","","",""
"","","","","","html-keyboard-response","237","638131","0.0-9.0-0.0-0.0-0.0-1.63","null","<span style='color:red; font-size: 70px;'>错误! </span>","null","","","","","","","","","","","","","","","","","","","","","","","","","feedback_test","",""
"","","","","","psychophysics","238","640612","0.0-9.0-0.0-0.0-0.0-0.64","1478","","arrowright","","","","","","","","","","","","","key","arrowright","16.66418918918872","768","402","arrowleft","false","../../test_img/25.png","朋友","matching_task","自我","[""<img src=\""../../test_img/12.png\"" width=150 style=\""vertical-align:middle\"">---生人"",""<img src=\""../../test_img/25.png\"" width=150 style=\""vertical-align:middle\"">---自我"",""<img src=\""../../test_img/19.png\"" width=150 style=\""vertical-align:middle\"">---朋友""]","","",""
"","","","","","html-keyboard-response","239","641122","0.0-9.0-0.0-0.0-0.0-1.64","null","<span style='color:red; font-size: 70px;'>错误! </span>","null","","","","","","","","","","","","","","","","","","","","","","","","","feedback_test","",""
"","","","","","psychophysics","240","643026","0.0-9.0-0.0-0.0-0.0-0.65","893","","arrowright","","","","","","","","","","","","","key","arrowright","16.664601769911297","768","402","arrowright","true","../../test_img/19.png","朋友","matching_task","朋友","[""<img src=\""../../test_img/12.png\"" width=150 style=\""vertical-align:middle\"">---生人"",""<img src=\""../../test_img/25.png\"" width=150 style=\""vertical-align:middle\"">---自我"",""<img src=\""../../test_img/19.png\"" width=150 style=\""vertical-align:middle\"">---朋友""]","","",""
"","","","","","html-keyboard-response","241","643529","0.0-9.0-0.0-0.0-0.0-1.65","null","<span style='color:GreenYellow; font-size: 70px;'>正确! </span>","null","","","","","","","","","","","","","","","","","","","","","","","","","feedback_test","",""
"","","","","","psychophysics","242","645383","0.0-9.0-0.0-0.0-0.0-0.66","850","","arrowleft","","","","","","","","","","","","","key","arrowleft","16.66545454545412","768","402","arrowright","false","../../test_img/12.png","生人","matching_task","生人","[""<img src=\""../../test_img/12.png\"" width=150 style=\""vertical-align:middle\"">---生人"",""<img src=\""../../test_img/25.png\"" width=150 style=\""vertical-align:middle\"">---自我"",""<img src=\""../../test_img/19.png\"" width=150 style=\""vertical-align:middle\"">---朋友""]","","",""
"","","","","","html-keyboard-response","243","645886","0.0-9.0-0.0-0.0-0.0-1.66","null","<span style='color:red; font-size: 70px;'>错误! </span>","null","","","","","","","","","","","","","","","","","","","","","","","","","feedback_test","",""
"","","","","","psychophysics","244","647811","0.0-9.0-0.0-0.0-0.0-0.67","924","","arrowleft","","","","","","","","","","","","","key","arrowleft","16.604385964912485","768","402","arrowleft","true","../../test_img/19.png","自我","matching_task","朋友","[""<img src=\""../../test_img/12.png\"" width=150 style=\""vertical-align:middle\"">---生人"",""<img src=\""../../test_img/25.png\"" width=150 style=\""vertical-align:middle\"">---自我"",""<img src=\""../../test_img/19.png\"" width=150 style=\""vertical-align:middle\"">---朋友""]","","",""
"","","","","","html-keyboard-response","245","648320","0.0-9.0-0.0-0.0-0.0-1.67","null","<span style='color:GreenYellow; font-size: 70px;'>正确! </span>","null","","","","","","","","","","","","","","","","","","","","","","","","","feedback_test","",""
"","","","","","psychophysics","246","650529","0.0-9.0-0.0-0.0-0.0-0.68","1208","","arrowright","","","","","","","","","","","","","key","arrowright","16.665648854962367","768","402","arrowright","true","../../test_img/19.png","朋友","matching_task","朋友","[""<img src=\""../../test_img/12.png\"" width=150 style=\""vertical-align:middle\"">---生人"",""<img src=\""../../test_img/25.png\"" width=150 style=\""vertical-align:middle\"">---自我"",""<img src=\""../../test_img/19.png\"" width=150 style=\""vertical-align:middle\"">---朋友""]","","",""
"","","","","","html-keyboard-response","247","651035","0.0-9.0-0.0-0.0-0.0-1.68","null","<span style='color:GreenYellow; font-size: 70px;'>正确! </span>","null","","","","","","","","","","","","","","","","","","","","","","","","","feedback_test","",""
"","","","","","psychophysics","248","652650","0.0-9.0-0.0-0.0-0.0-0.69","612","","arrowright","","","","","","","","","","","","","key","arrowright","16.66315789473684","768","402","arrowright","true","../../test_img/25.png","自我","matching_task","自我","[""<img src=\""../../test_img/12.png\"" width=150 style=\""vertical-align:middle\"">---生人"",""<img src=\""../../test_img/25.png\"" width=150 style=\""vertical-align:middle\"">---自我"",""<img src=\""../../test_img/19.png\"" width=150 style=\""vertical-align:middle\"">---朋友""]","","",""
"","","","","","html-keyboard-response","249","653151","0.0-9.0-0.0-0.0-0.0-1.69","null","<span style='color:GreenYellow; font-size: 70px;'>正确! </span>","null","","","","","","","","","","","","","","","","","","","","","","","","","feedback_test","",""
"","","","","","psychophysics","250","655474","0.0-9.0-0.0-0.0-0.0-0.70","1321","","arrowleft","","","","","","","","","","","","","key","arrowleft","16.664892086331236","768","402","arrowleft","true","../../test_img/19.png","生人","matching_task","朋友","[""<img src=\""../../test_img/12.png\"" width=150 style=\""vertical-align:middle\"">---生人"",""<img src=\""../../test_img/25.png\"" width=150 style=\""vertical-align:middle\"">---自我"",""<img src=\""../../test_img/19.png\"" width=150 style=\""vertical-align:middle\"">---朋友""]","","",""
"","","","","","html-keyboard-response","251","655983","0.0-9.0-0.0-0.0-0.0-1.70","null","<span style='color:GreenYellow; font-size: 70px;'>正确! </span>","null","","","","","","","","","","","","","","","","","","","","","","","","","feedback_test","",""
"","","","","","psychophysics","252","657925","0.0-9.0-0.0-0.0-0.0-0.71","939","","arrowright","","","","","","","","","","","","","key","arrowright","16.666551724137488","768","402","arrowright","true","../../test_img/12.png","生人","matching_task","生人","[""<img src=\""../../test_img/12.png\"" width=150 style=\""vertical-align:middle\"">---生人"",""<img src=\""../../test_img/25.png\"" width=150 style=\""vertical-align:middle\"">---自我"",""<img src=\""../../test_img/19.png\"" width=150 style=\""vertical-align:middle\"">---朋友""]","","",""
"","","","","","html-keyboard-response","253","658436","0.0-9.0-0.0-0.0-0.0-1.71","null","<span style='color:GreenYellow; font-size: 70px;'>正确! </span>","null","","","","","","","","","","","","","","","","","","","","","","","","","feedback_test","",""
"","","","","","html-keyboard-response","254","662187","0.0-9.0-0.0-0.0-1.0","3749","<style>.context{color:white; font-size: 35px; line-height:40px}</style>                          <div><p class='context'>您正确回答了78% 的试次。</p><p class='context'>您的平均反应时为960毫秒。</p><p class='context'>请按任意键进入休息</p></div>"," ","","","","","","","","","","","","","","","","","","","","","","","","","","",""
"","","","","","html-button-response","255","693185","0.0-9.0-0.0-0.0-2.0","30996","
                    <p>知觉匹配任务中，您还剩余4组实验</p>
                    <p>现在是休息时间，当您结束休息后，您可以点击 结束休息 按钮 继续</p>
                    <p>建议休息时间还剩余<span id=""iii"">60</span>秒</p>","0","","","","","","","","","","","","","","","","","","","","","","","","","","",""
"","","","","","psychophysics","256","695022","0.0-9.0-0.0-0.0-0.1-0.72","823","","arrowleft","","","","","","","","","","","","","key","arrowleft","16.66697247706486","768","402","arrowleft","true","../../test_img/12.png","自我","matching_task","生人","[""<img src=\""../../test_img/12.png\"" width=150 style=\""vertical-align:middle\"">---生人"",""<img src=\""../../test_img/25.png\"" width=150 style=\""vertical-align:middle\"">---自我"",""<img src=\""../../test_img/19.png\"" width=150 style=\""vertical-align:middle\"">---朋友""]","","",""
"","","","","","html-keyboard-response","257","695527","0.0-9.0-0.0-0.0-0.1-1.72","null","<span style='color:GreenYellow; font-size: 70px;'>正确! </span>","null","","","","","","","","","","","","","","","","","","","","","","","","","feedback_test","",""
