"success","timeout","failed_images","failed_audio","failed_video","trial_type","trial_index","time_elapsed","internal_node_id","rt","stimulus","response","value","item_width_mm","item_height_mm","item_width_px","px2mm","view_dist_mm","item_width_deg","px2deg","scale_factor","win_width_deg","win_height_deg","view_history","response_type","key_press","avg_frame_time","center_x","center_y","correct_response","correct","Image","word","condition","shape","association","screen_id","LeftLable","RightLable"
"true","false","[]","[]","[]","preload","0","307","0.0-0.0","","","","","","","","","","","","","","","","","","","","","","","","","","","","","",""
"","","","","","html-keyboard-response","1","22286","0.0-1.0","21980","
     <p>您好，欢迎参加本次实验。</p>
     <p>为充分保障您的权利，请确保您已经知晓并同意《参与实验同意书》以及《数据公开知情同意书》。</p>
     <p>如果您未见过上述内容，请咨询实验员。</p>
     <p>如果您选择继续实验，则表示您已经清楚两份知情同意书的内容并同意。</p>
     <p> <div style = ""color: green""><按任意键至下页></div> </p>
     "," ","","","","","","","","","","","","","","","","","","","","","","","","","","",""
"","","","","","html-keyboard-response","2","23373","0.0-2.0","1085","
     <p>本实验首先需要您填写一些基本个人信息。</p>
     <p> <div style = ""color: green""><按任意键至下页></div></p>
     "," ","","","","","","","","","","","","","","","","","","","","","","","","","","",""
"","","","","","call-function","3","23373","0.0-3.0-0.0","","","","","","","","","","","","","","","","","","","","","","","","","","","","","",""
"","","","","","survey-html-form","4","32004","0.0-3.0-1.0","8630","","{""Q0"":""18""}","","","","","","","","","","","","","","","","","","","","","","","","","","",""
"","","","","","html-button-response","5","33585","0.0-3.0-2.0","1579","<p style = 'color : white'>您的性别</p>","1","","","","","","","","","","","","","","","","","","","","","","","","","","",""
"","","","","","survey-html-form","6","37418","0.0-3.0-3.0","3832","","{""Q0"":""2002""}","","","","","","","","","","","","","","","","","","","","","","","","","","",""
"","","","","","survey-html-form","7","48451","0.0-3.0-4.0","11032","","{""Q0"":""6""}","","","","","","","","","","","","","","","","","","","","","","","","","","",""
"","","","","","virtual-chinrest","8","194729","0.0-4.0","146236","","","","85.6","53.98","418.59382118152104","4.893284252237688","584.79","8.37187642363042","50.00000000000001","1.032026700204601","28.799999999999997","13.399999999999999","","","","","","","","","","","","","","","",""
"true","","","","","fullscreen","9","211458","0.0-5.0","","","","","","","","","","","","","","","","","","","","","","","","","","","","","",""
"","","","","","instructions","10","273782","0.0-6.0","62326","","","","","","","","","","","","","","[{""page_index"":0,""viewing_time"":15682},{""page_index"":1,""viewing_time"":11689},{""page_index"":2,""viewing_time"":22478},{""page_index"":3,""viewing_time"":6774},{""page_index"":4,""viewing_time"":5703}]","","","","","","","","","","","","","","",""
"","","","","","psychophysics","11","276288","0.0-7.0-0.0-0.0","null","","null","","","","","","","","","","","","","key","null","16.66711409395989","720","446","arrowright","false","../../test_img/15.png","朋友","prac_matching_task","自我","[""<img src=\""../../test_img/15.png\"" width=150 style=\""vertical-align:middle\"">---自我"",""<img src=\""../../test_img/26.png\"" width=150 style=\""vertical-align:middle\"">---生人"",""<img src=\""../../test_img/22.png\"" width=150 style=\""vertical-align:middle\"">---朋友""]","","",""
"","","","","","html-keyboard-response","12","276590","0.0-7.0-0.0-1.0","null","<span class='add_' style='color:yellow; font-size: 70px;'> 太慢! </span>","null","","","","","","","","","","","","","","","","","","","","","","","","","feedback_test","",""
"","","","","","psychophysics","13","278803","0.0-7.0-0.0-0.1","1210","","arrowleft","","","","","","","","","","","","","key","arrowleft","16.659848484848748","720","446","arrowleft","true","../../test_img/26.png","生人","prac_matching_task","生人","[""<img src=\""../../test_img/15.png\"" width=150 style=\""vertical-align:middle\"">---自我"",""<img src=\""../../test_img/26.png\"" width=150 style=\""vertical-align:middle\"">---生人"",""<img src=\""../../test_img/22.png\"" width=150 style=\""vertical-align:middle\"">---朋友""]","","",""
"","","","","","html-keyboard-response","14","279105","0.0-7.0-0.0-1.1","null","<span style='color:GreenYellow; font-size: 70px;'>正确! </span>","null","","","","","","","","","","","","","","","","","","","","","","","","","feedback_test","",""
"","","","","","psychophysics","15","280737","0.0-7.0-0.0-0.2","630","","arrowleft","","","","","","","","","","","","","key","arrowleft","16.670103092783506","720","446","arrowleft","true","../../test_img/15.png","自我","prac_matching_task","自我","[""<img src=\""../../test_img/15.png\"" width=150 style=\""vertical-align:middle\"">---自我"",""<img src=\""../../test_img/26.png\"" width=150 style=\""vertical-align:middle\"">---生人"",""<img src=\""../../test_img/22.png\"" width=150 style=\""vertical-align:middle\"">---朋友""]","","",""
"","","","","","html-keyboard-response","16","281039","0.0-7.0-0.0-1.2","null","<span style='color:GreenYellow; font-size: 70px;'>正确! </span>","null","","","","","","","","","","","","","","","","","","","","","","","","","feedback_test","",""
"","","","","","psychophysics","17","282750","0.0-7.0-0.0-0.3","708","","arrowright","","","","","","","","","","","","","key","arrowright","16.65841584158416","720","446","arrowright","true","../../test_img/26.png","朋友","prac_matching_task","生人","[""<img src=\""../../test_img/15.png\"" width=150 style=\""vertical-align:middle\"">---自我"",""<img src=\""../../test_img/26.png\"" width=150 style=\""vertical-align:middle\"">---生人"",""<img src=\""../../test_img/22.png\"" width=150 style=\""vertical-align:middle\"">---朋友""]","","",""
"","","","","","html-keyboard-response","18","283052","0.0-7.0-0.0-1.3","null","<span style='color:GreenYellow; font-size: 70px;'>正确! </span>","null","","","","","","","","","","","","","","","","","","","","","","","","","feedback_test","",""
"","","","","","psychophysics","19","284507","0.0-7.0-0.0-0.4","454","","arrowleft","","","","","","","","","","","","","key","arrowleft","16.66744186046471","720","446","arrowleft","true","../../test_img/22.png","朋友","prac_matching_task","朋友","[""<img src=\""../../test_img/15.png\"" width=150 style=\""vertical-align:middle\"">---自我"",""<img src=\""../../test_img/26.png\"" width=150 style=\""vertical-align:middle\"">---生人"",""<img src=\""../../test_img/22.png\"" width=150 style=\""vertical-align:middle\"">---朋友""]","","",""
"","","","","","html-keyboard-response","20","284809","0.0-7.0-0.0-1.4","null","<span style='color:GreenYellow; font-size: 70px;'>正确! </span>","null","","","","","","","","","","","","","","","","","","","","","","","","","feedback_test","",""
"","","","","","psychophysics","21","287122","0.0-7.0-0.0-0.5","1311","","arrowleft","","","","","","","","","","","","","key","arrowleft","16.66715328467128","720","446","arrowright","false","../../test_img/22.png","自我","prac_matching_task","朋友","[""<img src=\""../../test_img/15.png\"" width=150 style=\""vertical-align:middle\"">---自我"",""<img src=\""../../test_img/26.png\"" width=150 style=\""vertical-align:middle\"">---生人"",""<img src=\""../../test_img/22.png\"" width=150 style=\""vertical-align:middle\"">---朋友""]","","",""
"","","","","","html-keyboard-response","22","287424","0.0-7.0-0.0-1.5","null","<span style='color:red; font-size: 70px;'>错误! </span>","null","","","","","","","","","","","","","","","","","","","","","","","","","feedback_test","",""
"","","","","","psychophysics","23","289436","0.0-7.0-0.0-0.6","1010","","arrowright","","","","","","","","","","","","","key","arrowright","16.666386554621752","720","446","arrowright","true","../../test_img/15.png","生人","prac_matching_task","自我","[""<img src=\""../../test_img/15.png\"" width=150 style=\""vertical-align:middle\"">---自我"",""<img src=\""../../test_img/26.png\"" width=150 style=\""vertical-align:middle\"">---生人"",""<img src=\""../../test_img/22.png\"" width=150 style=\""vertical-align:middle\"">---朋友""]","","",""
"","","","","","html-keyboard-response","24","289738","0.0-7.0-0.0-1.6","null","<span style='color:GreenYellow; font-size: 70px;'>正确! </span>","null","","","","","","","","","","","","","","","","","","","","","","","","","feedback_test","",""
"","","","","","psychophysics","25","291750","0.0-7.0-0.0-0.7","1010","","arrowleft","","","","","","","","","","","","","key","arrowleft","16.666386554621752","720","446","arrowleft","true","../../test_img/22.png","朋友","prac_matching_task","朋友","[""<img src=\""../../test_img/15.png\"" width=150 style=\""vertical-align:middle\"">---自我"",""<img src=\""../../test_img/26.png\"" width=150 style=\""vertical-align:middle\"">---生人"",""<img src=\""../../test_img/22.png\"" width=150 style=\""vertical-align:middle\"">---朋友""]","","",""
"","","","","","html-keyboard-response","26","292052","0.0-7.0-0.0-1.7","null","<span style='color:GreenYellow; font-size: 70px;'>正确! </span>","null","","","","","","","","","","","","","","","","","","","","","","","","","feedback_test","",""
"","","","","","psychophysics","27","294171","0.0-7.0-0.0-0.8","1119","","arrowleft","","","","","","","","","","","","","key","arrowleft","16.667460317460595","720","446","arrowright","false","../../test_img/22.png","生人","prac_matching_task","朋友","[""<img src=\""../../test_img/15.png\"" width=150 style=\""vertical-align:middle\"">---自我"",""<img src=\""../../test_img/26.png\"" width=150 style=\""vertical-align:middle\"">---生人"",""<img src=\""../../test_img/22.png\"" width=150 style=\""vertical-align:middle\"">---朋友""]","","",""
"","","","","","html-keyboard-response","28","294473","0.0-7.0-0.0-1.8","null","<span style='color:red; font-size: 70px;'>错误! </span>","null","","","","","","","","","","","","","","","","","","","","","","","","","feedback_test","",""
"","","","","","psychophysics","29","296976","0.0-7.0-0.0-0.9","null","","null","","","","","","","","","","","","","key","null","16.66778523489933","720","446","arrowleft","false","../../test_img/26.png","生人","prac_matching_task","生人","[""<img src=\""../../test_img/15.png\"" width=150 style=\""vertical-align:middle\"">---自我"",""<img src=\""../../test_img/26.png\"" width=150 style=\""vertical-align:middle\"">---生人"",""<img src=\""../../test_img/22.png\"" width=150 style=\""vertical-align:middle\"">---朋友""]","","",""
"","","","","","html-keyboard-response","30","297279","0.0-7.0-0.0-1.9","null","<span class='add_' style='color:yellow; font-size: 70px;'> 太慢! </span>","null","","","","","","","","","","","","","","","","","","","","","","","","","feedback_test","",""
"","","","","","psychophysics","31","299617","0.0-7.0-0.0-0.10","1337","","arrowright","","","","","","","","","","","","","key","arrowright","16.667391304347657","720","446","arrowright","true","../../test_img/26.png","自我","prac_matching_task","生人","[""<img src=\""../../test_img/15.png\"" width=150 style=\""vertical-align:middle\"">---自我"",""<img src=\""../../test_img/26.png\"" width=150 style=\""vertical-align:middle\"">---生人"",""<img src=\""../../test_img/22.png\"" width=150 style=\""vertical-align:middle\"">---朋友""]","","",""
"","","","","","html-keyboard-response","32","299919","0.0-7.0-0.0-1.10","null","<span style='color:GreenYellow; font-size: 70px;'>正确! </span>","null","","","","","","","","","","","","","","","","","","","","","","","","","feedback_test","",""
"","","","","","psychophysics","33","301967","0.0-7.0-0.0-0.11","1046","","arrowleft","","","","","","","","","","","","","key","arrowleft","16.666942148760427","720","446","arrowleft","true","../../test_img/15.png","自我","prac_matching_task","自我","[""<img src=\""../../test_img/15.png\"" width=150 style=\""vertical-align:middle\"">---自我"",""<img src=\""../../test_img/26.png\"" width=150 style=\""vertical-align:middle\"">---生人"",""<img src=\""../../test_img/22.png\"" width=150 style=\""vertical-align:middle\"">---朋友""]","","",""
"","","","","","html-keyboard-response","34","302269","0.0-7.0-0.0-1.11","null","<span style='color:GreenYellow; font-size: 70px;'>正确! </span>","null","","","","","","","","","","","","","","","","","","","","","","","","","feedback_test","",""
"","","","","","psychophysics","35","304385","0.0-7.0-0.0-0.12","1114","","arrowleft","","","","","","","","","","","","","key","arrowleft","16.669047619047987","720","446","arrowleft","true","../../test_img/26.png","生人","prac_matching_task","生人","[""<img src=\""../../test_img/15.png\"" width=150 style=\""vertical-align:middle\"">---自我"",""<img src=\""../../test_img/26.png\"" width=150 style=\""vertical-align:middle\"">---生人"",""<img src=\""../../test_img/22.png\"" width=150 style=\""vertical-align:middle\"">---朋友""]","","",""
"","","","","","html-keyboard-response","36","304686","0.0-7.0-0.0-1.12","null","<span style='color:GreenYellow; font-size: 70px;'>正确! </span>","null","","","","","","","","","","","","","","","","","","","","","","","","","feedback_test","",""
"","","","","","psychophysics","37","306307","0.0-7.0-0.0-0.13","619","","arrowleft","","","","","","","","","","","","","key","arrowleft","16.67499999999988","720","446","arrowleft","true","../../test_img/15.png","自我","prac_matching_task","自我","[""<img src=\""../../test_img/15.png\"" width=150 style=\""vertical-align:middle\"">---自我"",""<img src=\""../../test_img/26.png\"" width=150 style=\""vertical-align:middle\"">---生人"",""<img src=\""../../test_img/22.png\"" width=150 style=\""vertical-align:middle\"">---朋友""]","","",""
"","","","","","html-keyboard-response","38","306609","0.0-7.0-0.0-1.13","null","<span style='color:GreenYellow; font-size: 70px;'>正确! </span>","null","","","","","","","","","","","","","","","","","","","","","","","","","feedback_test","",""
"","","","","","psychophysics","39","308108","0.0-7.0-0.0-0.14","496","","arrowright","","","","","","","","","","","","","key","arrowright","16.667045454545587","720","446","arrowleft","false","../../test_img/22.png","朋友","prac_matching_task","朋友","[""<img src=\""../../test_img/15.png\"" width=150 style=\""vertical-align:middle\"">---自我"",""<img src=\""../../test_img/26.png\"" width=150 style=\""vertical-align:middle\"">---生人"",""<img src=\""../../test_img/22.png\"" width=150 style=\""vertical-align:middle\"">---朋友""]","","",""
"","","","","","html-keyboard-response","40","308410","0.0-7.0-0.0-1.14","null","<span style='color:red; font-size: 70px;'>错误! </span>","null","","","","","","","","","","","","","","","","","","","","","","","","","feedback_test","",""
"","","","","","psychophysics","41","310318","0.0-7.0-0.0-0.15","906","","arrowleft","","","","","","","","","","","","","key","arrowleft","16.66902654867236","720","446","arrowleft","true","../../test_img/26.png","生人","prac_matching_task","生人","[""<img src=\""../../test_img/15.png\"" width=150 style=\""vertical-align:middle\"">---自我"",""<img src=\""../../test_img/26.png\"" width=150 style=\""vertical-align:middle\"">---生人"",""<img src=\""../../test_img/22.png\"" width=150 style=\""vertical-align:middle\"">---朋友""]","","",""
"","","","","","html-keyboard-response","42","310621","0.0-7.0-0.0-1.15","null","<span style='color:GreenYellow; font-size: 70px;'>正确! </span>","null","","","","","","","","","","","","","","","","","","","","","","","","","feedback_test","",""
"","","","","","psychophysics","43","312743","0.0-7.0-0.0-0.16","1121","","arrowleft","","","","","","","","","","","","","key","arrowleft","16.667460317460133","720","446","arrowright","false","../../test_img/26.png","朋友","prac_matching_task","生人","[""<img src=\""../../test_img/15.png\"" width=150 style=\""vertical-align:middle\"">---自我"",""<img src=\""../../test_img/26.png\"" width=150 style=\""vertical-align:middle\"">---生人"",""<img src=\""../../test_img/22.png\"" width=150 style=\""vertical-align:middle\"">---朋友""]","","",""
"","","","","","html-keyboard-response","44","313045","0.0-7.0-0.0-1.16","null","<span style='color:red; font-size: 70px;'>错误! </span>","null","","","","","","","","","","","","","","","","","","","","","","","","","feedback_test","",""
"","","","","","psychophysics","45","315549","0.0-7.0-0.0-0.17","null","","null","","","","","","","","","","","","","key","null","16.66689189189197","720","446","arrowright","false","../../test_img/15.png","朋友","prac_matching_task","自我","[""<img src=\""../../test_img/15.png\"" width=150 style=\""vertical-align:middle\"">---自我"",""<img src=\""../../test_img/26.png\"" width=150 style=\""vertical-align:middle\"">---生人"",""<img src=\""../../test_img/22.png\"" width=150 style=\""vertical-align:middle\"">---朋友""]","","",""
"","","","","","html-keyboard-response","46","315851","0.0-7.0-0.0-1.17","null","<span class='add_' style='color:yellow; font-size: 70px;'> 太慢! </span>","null","","","","","","","","","","","","","","","","","","","","","","","","","feedback_test","",""
"","","","","","psychophysics","47","317894","0.0-7.0-0.0-0.18","1041","","arrowright","","","","","","","","","","","","","key","arrowright","16.666942148760427","720","446","arrowright","true","../../test_img/15.png","生人","prac_matching_task","自我","[""<img src=\""../../test_img/15.png\"" width=150 style=\""vertical-align:middle\"">---自我"",""<img src=\""../../test_img/26.png\"" width=150 style=\""vertical-align:middle\"">---生人"",""<img src=\""../../test_img/22.png\"" width=150 style=\""vertical-align:middle\"">---朋友""]","","",""
"","","","","","html-keyboard-response","48","318196","0.0-7.0-0.0-1.18","null","<span style='color:GreenYellow; font-size: 70px;'>正确! </span>","null","","","","","","","","","","","","","","","","","","","","","","","","","feedback_test","",""
"","","","","","psychophysics","49","319917","0.0-7.0-0.0-0.19","719","","arrowleft","","","","","","","","","","","","","key","arrowleft","16.666336633663253","720","446","arrowleft","true","../../test_img/15.png","自我","prac_matching_task","自我","[""<img src=\""../../test_img/15.png\"" width=150 style=\""vertical-align:middle\"">---自我"",""<img src=\""../../test_img/26.png\"" width=150 style=\""vertical-align:middle\"">---生人"",""<img src=\""../../test_img/22.png\"" width=150 style=\""vertical-align:middle\"">---朋友""]","","",""
"","","","","","html-keyboard-response","50","320219","0.0-7.0-0.0-1.19","null","<span style='color:GreenYellow; font-size: 70px;'>正确! </span>","null","","","","","","","","","","","","","","","","","","","","","","","","","feedback_test","",""
"","","","","","psychophysics","51","322025","0.0-7.0-0.0-0.20","805","","arrowright","","","","","","","","","","","","","key","arrowright","16.667289719626385","720","446","arrowright","true","../../test_img/26.png","自我","prac_matching_task","生人","[""<img src=\""../../test_img/15.png\"" width=150 style=\""vertical-align:middle\"">---自我"",""<img src=\""../../test_img/26.png\"" width=150 style=\""vertical-align:middle\"">---生人"",""<img src=\""../../test_img/22.png\"" width=150 style=\""vertical-align:middle\"">---朋友""]","","",""
"","","","","","html-keyboard-response","52","322327","0.0-7.0-0.0-1.20","null","<span style='color:GreenYellow; font-size: 70px;'>正确! </span>","null","","","","","","","","","","","","","","","","","","","","","","","","","feedback_test","",""
"","","","","","psychophysics","53","324131","0.0-7.0-0.0-0.21","803","","arrowright","","","","","","","","","","","","","key","arrowright","16.666981132075033","720","446","arrowright","true","../../test_img/22.png","生人","prac_matching_task","朋友","[""<img src=\""../../test_img/15.png\"" width=150 style=\""vertical-align:middle\"">---自我"",""<img src=\""../../test_img/26.png\"" width=150 style=\""vertical-align:middle\"">---生人"",""<img src=\""../../test_img/22.png\"" width=150 style=\""vertical-align:middle\"">---朋友""]","","",""
"","","","","","html-keyboard-response","54","324433","0.0-7.0-0.0-1.21","null","<span style='color:GreenYellow; font-size: 70px;'>正确! </span>","null","","","","","","","","","","","","","","","","","","","","","","","","","feedback_test","",""
"","","","","","psychophysics","55","326268","0.0-7.0-0.0-0.22","834","","arrowleft","","","","","","","","","","","","","key","arrowleft","16.67155963302763","720","446","arrowleft","true","../../test_img/22.png","朋友","prac_matching_task","朋友","[""<img src=\""../../test_img/15.png\"" width=150 style=\""vertical-align:middle\"">---自我"",""<img src=\""../../test_img/26.png\"" width=150 style=\""vertical-align:middle\"">---生人"",""<img src=\""../../test_img/22.png\"" width=150 style=\""vertical-align:middle\"">---朋友""]","","",""
"","","","","","html-keyboard-response","56","326571","0.0-7.0-0.0-1.22","null","<span style='color:GreenYellow; font-size: 70px;'>正确! </span>","null","","","","","","","","","","","","","","","","","","","","","","","","","feedback_test","",""
"","","","","","psychophysics","57","328422","0.0-7.0-0.0-0.23","849","","arrowright","","","","","","","","","","","","","key","arrowright","16.66636363636353","720","446","arrowright","true","../../test_img/22.png","自我","prac_matching_task","朋友","[""<img src=\""../../test_img/15.png\"" width=150 style=\""vertical-align:middle\"">---自我"",""<img src=\""../../test_img/26.png\"" width=150 style=\""vertical-align:middle\"">---生人"",""<img src=\""../../test_img/22.png\"" width=150 style=\""vertical-align:middle\"">---朋友""]","","",""
"","","","","","html-keyboard-response","58","328724","0.0-7.0-0.0-1.23","null","<span style='color:GreenYellow; font-size: 70px;'>正确! </span>","null","","","","","","","","","","","","","","","","","","","","","","","","","feedback_test","",""
"","","","","","html-keyboard-response","59","338807","0.0-8.0","10082","<style>.context{color:white; font-size: 35px; line-height:40px}</style>                          <div><p class='context'>您正确回答了71% 的试次。</p ><p class='context'>您的平均反应时为888毫秒。</p ><p class='context'>恭喜您完成练习。按任意键进入知觉匹配任务正式实验。</p ><p style = 'color:lightgreen; font-size: 35px;' >正式实验与练习要求相同，请您尽可能又快又准地进行按键反应</p><p class='footer' style='font-size: 22px; line-height:40px;'>请将您右手的<span style='color: lightgreen;'>食指与无名指</span>放在电脑键盘的相应键位上进行按键。</p >"," ","","","","","","","","","","","","","","","","","","","","","","","","","","",""
"","","","","","psychophysics","60","340699","0.0-9.0-0.0-0.0-0.0-0.0","889","","arrowright","","","","","","","","","","","","","key","arrowright","16.670535714285506","720","446","arrowright","true","../../test_img/26.png","朋友","matching_task","生人","[""<img src=\""../../test_img/15.png\"" width=150 style=\""vertical-align:middle\"">---自我"",""<img src=\""../../test_img/26.png\"" width=150 style=\""vertical-align:middle\"">---生人"",""<img src=\""../../test_img/22.png\"" width=150 style=\""vertical-align:middle\"">---朋友""]","","",""
"","","","","","html-keyboard-response","61","341201","0.0-9.0-0.0-0.0-0.0-1.0","null","<span style='color:GreenYellow; font-size: 70px;'>正确! </span>","null","","","","","","","","","","","","","","","","","","","","","","","","","feedback_test","",""
"","","","","","psychophysics","62","343150","0.0-9.0-0.0-0.0-0.0-0.1","947","","arrowleft","","","","","","","","","","","","","key","arrowleft","16.66173913043458","720","446","arrowleft","true","../../test_img/26.png","生人","matching_task","生人","[""<img src=\""../../test_img/15.png\"" width=150 style=\""vertical-align:middle\"">---自我"",""<img src=\""../../test_img/26.png\"" width=150 style=\""vertical-align:middle\"">---生人"",""<img src=\""../../test_img/22.png\"" width=150 style=\""vertical-align:middle\"">---朋友""]","","",""
"","","","","","html-keyboard-response","63","343652","0.0-9.0-0.0-0.0-0.0-1.1","null","<span style='color:GreenYellow; font-size: 70px;'>正确! </span>","null","","","","","","","","","","","","","","","","","","","","","","","","","feedback_test","",""
"","","","","","psychophysics","64","345400","0.0-9.0-0.0-0.0-0.0-0.2","746","","arrowleft","","","","","","","","","","","","","key","arrowleft","16.66990291262136","720","446","arrowleft","true","../../test_img/26.png","生人","matching_task","生人","[""<img src=\""../../test_img/15.png\"" width=150 style=\""vertical-align:middle\"">---自我"",""<img src=\""../../test_img/26.png\"" width=150 style=\""vertical-align:middle\"">---生人"",""<img src=\""../../test_img/22.png\"" width=150 style=\""vertical-align:middle\"">---朋友""]","","",""
"","","","","","html-keyboard-response","65","345901","0.0-9.0-0.0-0.0-0.0-1.2","null","<span style='color:GreenYellow; font-size: 70px;'>正确! </span>","null","","","","","","","","","","","","","","","","","","","","","","","","","feedback_test","",""
"","","","","","psychophysics","66","347534","0.0-9.0-0.0-0.0-0.0-0.3","631","","arrowleft","","","","","","","","","","","","","key","arrowleft","16.667708333333092","720","446","arrowleft","true","../../test_img/15.png","自我","matching_task","自我","[""<img src=\""../../test_img/15.png\"" width=150 style=\""vertical-align:middle\"">---自我"",""<img src=\""../../test_img/26.png\"" width=150 style=\""vertical-align:middle\"">---生人"",""<img src=\""../../test_img/22.png\"" width=150 style=\""vertical-align:middle\"">---朋友""]","","",""
"","","","","","html-keyboard-response","67","348035","0.0-9.0-0.0-0.0-0.0-1.3","null","<span style='color:GreenYellow; font-size: 70px;'>正确! </span>","null","","","","","","","","","","","","","","","","","","","","","","","","","feedback_test","",""
"","","","","","psychophysics","68","349885","0.0-9.0-0.0-0.0-0.0-0.4","848","","arrowright","","","","","","","","","","","","","key","arrowright","16.664545454545244","720","446","arrowright","true","../../test_img/22.png","自我","matching_task","朋友","[""<img src=\""../../test_img/15.png\"" width=150 style=\""vertical-align:middle\"">---自我"",""<img src=\""../../test_img/26.png\"" width=150 style=\""vertical-align:middle\"">---生人"",""<img src=\""../../test_img/22.png\"" width=150 style=\""vertical-align:middle\"">---朋友""]","","",""
"","","","","","html-keyboard-response","69","350386","0.0-9.0-0.0-0.0-0.0-1.4","null","<span style='color:GreenYellow; font-size: 70px;'>正确! </span>","null","","","","","","","","","","","","","","","","","","","","","","","","","feedback_test","",""
"","","","","","psychophysics","70","352164","0.0-9.0-0.0-0.0-0.0-0.5","776","","arrowright","","","","","","","","","","","","","key","arrowright","16.667619047618825","720","446","arrowright","true","../../test_img/15.png","朋友","matching_task","自我","[""<img src=\""../../test_img/15.png\"" width=150 style=\""vertical-align:middle\"">---自我"",""<img src=\""../../test_img/26.png\"" width=150 style=\""vertical-align:middle\"">---生人"",""<img src=\""../../test_img/22.png\"" width=150 style=\""vertical-align:middle\"">---朋友""]","","",""
"","","","","","html-keyboard-response","71","352665","0.0-9.0-0.0-0.0-0.0-1.5","null","<span style='color:GreenYellow; font-size: 70px;'>正确! </span>","null","","","","","","","","","","","","","","","","","","","","","","","","","feedback_test","",""
"","","","","","psychophysics","72","354781","0.0-9.0-0.0-0.0-0.0-0.6","1114","","arrowright","","","","","","","","","","","","","key","arrowright","16.666399999999907","720","446","arrowright","true","../../test_img/26.png","自我","matching_task","生人","[""<img src=\""../../test_img/15.png\"" width=150 style=\""vertical-align:middle\"">---自我"",""<img src=\""../../test_img/26.png\"" width=150 style=\""vertical-align:middle\"">---生人"",""<img src=\""../../test_img/22.png\"" width=150 style=\""vertical-align:middle\"">---朋友""]","","",""
"","","","","","html-keyboard-response","73","355283","0.0-9.0-0.0-0.0-0.0-1.6","null","<span style='color:GreenYellow; font-size: 70px;'>正确! </span>","null","","","","","","","","","","","","","","","","","","","","","","","","","feedback_test","",""
"","","","","","psychophysics","74","356949","0.0-9.0-0.0-0.0-0.0-0.7","665","","arrowright","","","","","","","","","","","","","key","arrowright","16.6571428571425","720","446","arrowright","true","../../test_img/22.png","生人","matching_task","朋友","[""<img src=\""../../test_img/15.png\"" width=150 style=\""vertical-align:middle\"">---自我"",""<img src=\""../../test_img/26.png\"" width=150 style=\""vertical-align:middle\"">---生人"",""<img src=\""../../test_img/22.png\"" width=150 style=\""vertical-align:middle\"">---朋友""]","","",""
"","","","","","html-keyboard-response","75","357451","0.0-9.0-0.0-0.0-0.0-1.7","null","<span style='color:GreenYellow; font-size: 70px;'>正确! </span>","null","","","","","","","","","","","","","","","","","","","","","","","","","feedback_test","",""
"","","","","","psychophysics","76","359181","0.0-9.0-0.0-0.0-0.0-0.8","728","","arrowleft","","","","","","","","","","","","","key","arrowleft","16.657843137255245","720","446","arrowleft","true","../../test_img/22.png","朋友","matching_task","朋友","[""<img src=\""../../test_img/15.png\"" width=150 style=\""vertical-align:middle\"">---自我"",""<img src=\""../../test_img/26.png\"" width=150 style=\""vertical-align:middle\"">---生人"",""<img src=\""../../test_img/22.png\"" width=150 style=\""vertical-align:middle\"">---朋友""]","","",""
"","","","","","html-keyboard-response","77","359683","0.0-9.0-0.0-0.0-0.0-1.8","null","<span style='color:GreenYellow; font-size: 70px;'>正确! </span>","null","","","","","","","","","","","","","","","","","","","","","","","","","feedback_test","",""
"","","","","","psychophysics","78","361605","0.0-9.0-0.0-0.0-0.0-0.9","921","","arrowleft","","","","","","","","","","","","","key","arrowleft","16.661403508772135","720","446","arrowleft","true","../../test_img/22.png","朋友","matching_task","朋友","[""<img src=\""../../test_img/15.png\"" width=150 style=\""vertical-align:middle\"">---自我"",""<img src=\""../../test_img/26.png\"" width=150 style=\""vertical-align:middle\"">---生人"",""<img src=\""../../test_img/22.png\"" width=150 style=\""vertical-align:middle\"">---朋友""]","","",""
"","","","","","html-keyboard-response","79","362106","0.0-9.0-0.0-0.0-0.0-1.9","null","<span style='color:GreenYellow; font-size: 70px;'>正确! </span>","null","","","","","","","","","","","","","","","","","","","","","","","","","feedback_test","",""
"","","","","","psychophysics","80","363566","0.0-9.0-0.0-0.0-0.0-0.10","458","","arrowleft","","","","","","","","","","","","","key","arrowleft","16.676744186046648","720","446","arrowleft","true","../../test_img/15.png","自我","matching_task","自我","[""<img src=\""../../test_img/15.png\"" width=150 style=\""vertical-align:middle\"">---自我"",""<img src=\""../../test_img/26.png\"" width=150 style=\""vertical-align:middle\"">---生人"",""<img src=\""../../test_img/22.png\"" width=150 style=\""vertical-align:middle\"">---朋友""]","","",""
"","","","","","html-keyboard-response","81","364068","0.0-9.0-0.0-0.0-0.0-1.10","null","<span style='color:GreenYellow; font-size: 70px;'>正确! </span>","null","","","","","","","","","","","","","","","","","","","","","","","","","feedback_test","",""
"","","","","","psychophysics","82","365674","0.0-9.0-0.0-0.0-0.0-0.11","605","","arrowright","","","","","","","","","","","","","key","arrowright","16.667368421052263","720","446","arrowright","true","../../test_img/15.png","生人","matching_task","自我","[""<img src=\""../../test_img/15.png\"" width=150 style=\""vertical-align:middle\"">---自我"",""<img src=\""../../test_img/26.png\"" width=150 style=\""vertical-align:middle\"">---生人"",""<img src=\""../../test_img/22.png\"" width=150 style=\""vertical-align:middle\"">---朋友""]","","",""
"","","","","","html-keyboard-response","83","366175","0.0-9.0-0.0-0.0-0.0-1.11","null","<span style='color:GreenYellow; font-size: 70px;'>正确! </span>","null","","","","","","","","","","","","","","","","","","","","","","","","","feedback_test","",""
"","","","","","psychophysics","84","367900","0.0-9.0-0.0-0.0-0.0-0.12","723","","arrowright","","","","","","","","","","","","","key","arrowright","16.667326732673498","720","446","arrowright","true","../../test_img/15.png","朋友","matching_task","自我","[""<img src=\""../../test_img/15.png\"" width=150 style=\""vertical-align:middle\"">---自我"",""<img src=\""../../test_img/26.png\"" width=150 style=\""vertical-align:middle\"">---生人"",""<img src=\""../../test_img/22.png\"" width=150 style=\""vertical-align:middle\"">---朋友""]","","",""
"","","","","","html-keyboard-response","85","368402","0.0-9.0-0.0-0.0-0.0-1.12","null","<span style='color:GreenYellow; font-size: 70px;'>正确! </span>","null","","","","","","","","","","","","","","","","","","","","","","","","","feedback_test","",""
"","","","","","psychophysics","86","370050","0.0-9.0-0.0-0.0-0.0-0.13","647","","arrowleft","","","","","","","","","","","","","key","arrowleft","16.66701030927847","720","446","arrowleft","true","../../test_img/15.png","自我","matching_task","自我","[""<img src=\""../../test_img/15.png\"" width=150 style=\""vertical-align:middle\"">---自我"",""<img src=\""../../test_img/26.png\"" width=150 style=\""vertical-align:middle\"">---生人"",""<img src=\""../../test_img/22.png\"" width=150 style=\""vertical-align:middle\"">---朋友""]","","",""
"","","","","","html-keyboard-response","87","370551","0.0-9.0-0.0-0.0-0.0-1.13","null","<span style='color:GreenYellow; font-size: 70px;'>正确! </span>","null","","","","","","","","","","","","","","","","","","","","","","","","","feedback_test","",""
"","","","","","psychophysics","88","372247","0.0-9.0-0.0-0.0-0.0-0.14","695","","arrowright","","","","","","","","","","","","","key","arrowright","16.666999999999533","720","446","arrowright","true","../../test_img/22.png","生人","matching_task","朋友","[""<img src=\""../../test_img/15.png\"" width=150 style=\""vertical-align:middle\"">---自我"",""<img src=\""../../test_img/26.png\"" width=150 style=\""vertical-align:middle\"">---生人"",""<img src=\""../../test_img/22.png\"" width=150 style=\""vertical-align:middle\"">---朋友""]","","",""
"","","","","","html-keyboard-response","89","372748","0.0-9.0-0.0-0.0-0.0-1.14","null","<span style='color:GreenYellow; font-size: 70px;'>正确! </span>","null","","","","","","","","","","","","","","","","","","","","","","","","","feedback_test","",""
"","","","","","psychophysics","90","374441","0.0-9.0-0.0-0.0-0.0-0.15","691","","arrowright","","","","","","","","","","","","","key","arrowright","16.667000000000115","720","446","arrowright","true","../../test_img/26.png","自我","matching_task","生人","[""<img src=\""../../test_img/15.png\"" width=150 style=\""vertical-align:middle\"">---自我"",""<img src=\""../../test_img/26.png\"" width=150 style=\""vertical-align:middle\"">---生人"",""<img src=\""../../test_img/22.png\"" width=150 style=\""vertical-align:middle\"">---朋友""]","","",""
"","","","","","html-keyboard-response","91","374943","0.0-9.0-0.0-0.0-0.0-1.15","null","<span style='color:GreenYellow; font-size: 70px;'>正确! </span>","null","","","","","","","","","","","","","","","","","","","","","","","","","feedback_test","",""
"","","","","","psychophysics","92","376584","0.0-9.0-0.0-0.0-0.0-0.16","639","","arrowleft","","","","","","","","","","","","","key","arrowleft","16.666666666666668","720","446","arrowleft","true","../../test_img/22.png","朋友","matching_task","朋友","[""<img src=\""../../test_img/15.png\"" width=150 style=\""vertical-align:middle\"">---自我"",""<img src=\""../../test_img/26.png\"" width=150 style=\""vertical-align:middle\"">---生人"",""<img src=\""../../test_img/22.png\"" width=150 style=\""vertical-align:middle\"">---朋友""]","","",""
"","","","","","html-keyboard-response","93","377085","0.0-9.0-0.0-0.0-0.0-1.16","null","<span style='color:GreenYellow; font-size: 70px;'>正确! </span>","null","","","","","","","","","","","","","","","","","","","","","","","","","feedback_test","",""
"","","","","","psychophysics","94","378703","0.0-9.0-0.0-0.0-0.0-0.17","616","","arrowright","","","","","","","","","","","","","key","arrowright","16.667708333333092","720","446","arrowleft","false","../../test_img/26.png","生人","matching_task","生人","[""<img src=\""../../test_img/15.png\"" width=150 style=\""vertical-align:middle\"">---自我"",""<img src=\""../../test_img/26.png\"" width=150 style=\""vertical-align:middle\"">---生人"",""<img src=\""../../test_img/22.png\"" width=150 style=\""vertical-align:middle\"">---朋友""]","","",""
"","","","","","html-keyboard-response","95","379205","0.0-9.0-0.0-0.0-0.0-1.17","null","<span style='color:red; font-size: 70px;'>错误! </span>","null","","","","","","","","","","","","","","","","","","","","","","","","","feedback_test","",""
"","","","","","psychophysics","96","380752","0.0-9.0-0.0-0.0-0.0-0.18","545","","arrowleft","","","","","","","","","","","","","key","arrowleft","16.67499999999975","720","446","arrowleft","true","../../test_img/15.png","自我","matching_task","自我","[""<img src=\""../../test_img/15.png\"" width=150 style=\""vertical-align:middle\"">---自我"",""<img src=\""../../test_img/26.png\"" width=150 style=\""vertical-align:middle\"">---生人"",""<img src=\""../../test_img/22.png\"" width=150 style=\""vertical-align:middle\"">---朋友""]","","",""
"","","","","","html-keyboard-response","97","381253","0.0-9.0-0.0-0.0-0.0-1.18","null","<span style='color:GreenYellow; font-size: 70px;'>正确! </span>","null","","","","","","","","","","","","","","","","","","","","","","","","","feedback_test","",""
"","","","","","psychophysics","98","383298","0.0-9.0-0.0-0.0-0.0-0.19","1042","","arrowright","","","","","","","","","","","","","key","arrowright","16.666942148759947","720","446","arrowright","true","../../test_img/15.png","生人","matching_task","自我","[""<img src=\""../../test_img/15.png\"" width=150 style=\""vertical-align:middle\"">---自我"",""<img src=\""../../test_img/26.png\"" width=150 style=\""vertical-align:middle\"">---生人"",""<img src=\""../../test_img/22.png\"" width=150 style=\""vertical-align:middle\"">---朋友""]","","",""
"","","","","","html-keyboard-response","99","383800","0.0-9.0-0.0-0.0-0.0-1.19","null","<span style='color:GreenYellow; font-size: 70px;'>正确! </span>","null","","","","","","","","","","","","","","","","","","","","","","","","","feedback_test","",""
"","","","","","psychophysics","100","385813","0.0-9.0-0.0-0.0-0.0-0.20","1012","","arrowleft","","","","","","","","","","","","","key","arrowleft","16.668067226890756","720","446","arrowleft","true","../../test_img/26.png","生人","matching_task","生人","[""<img src=\""../../test_img/15.png\"" width=150 style=\""vertical-align:middle\"">---自我"",""<img src=\""../../test_img/26.png\"" width=150 style=\""vertical-align:middle\"">---生人"",""<img src=\""../../test_img/22.png\"" width=150 style=\""vertical-align:middle\"">---朋友""]","","",""
"","","","","","html-keyboard-response","101","386315","0.0-9.0-0.0-0.0-0.0-1.20","null","<span style='color:GreenYellow; font-size: 70px;'>正确! </span>","null","","","","","","","","","","","","","","","","","","","","","","","","","feedback_test","",""
"","","","","","psychophysics","102","388102","0.0-9.0-0.0-0.0-0.0-0.21","785","","arrowright","","","","","","","","","","","","","key","arrowright","16.66698113207558","720","446","arrowright","true","../../test_img/22.png","自我","matching_task","朋友","[""<img src=\""../../test_img/15.png\"" width=150 style=\""vertical-align:middle\"">---自我"",""<img src=\""../../test_img/26.png\"" width=150 style=\""vertical-align:middle\"">---生人"",""<img src=\""../../test_img/22.png\"" width=150 style=\""vertical-align:middle\"">---朋友""]","","",""
"","","","","","html-keyboard-response","103","388603","0.0-9.0-0.0-0.0-0.0-1.21","null","<span style='color:GreenYellow; font-size: 70px;'>正确! </span>","null","","","","","","","","","","","","","","","","","","","","","","","","","feedback_test","",""
"","","","","","psychophysics","104","390367","0.0-9.0-0.0-0.0-0.0-0.22","762","","arrowleft","","","","","","","","","","","","","key","arrowleft","16.65961538461572","720","446","arrowleft","true","../../test_img/22.png","朋友","matching_task","朋友","[""<img src=\""../../test_img/15.png\"" width=150 style=\""vertical-align:middle\"">---自我"",""<img src=\""../../test_img/26.png\"" width=150 style=\""vertical-align:middle\"">---生人"",""<img src=\""../../test_img/22.png\"" width=150 style=\""vertical-align:middle\"">---朋友""]","","",""
"","","","","","html-keyboard-response","105","390869","0.0-9.0-0.0-0.0-0.0-1.22","null","<span style='color:GreenYellow; font-size: 70px;'>正确! </span>","null","","","","","","","","","","","","","","","","","","","","","","","","","feedback_test","",""
"","","","","","psychophysics","106","392670","0.0-9.0-0.0-0.0-0.0-0.23","800","","arrowright","","","","","","","","","","","","","key","arrowright","16.6588785046729","720","446","arrowright","true","../../test_img/26.png","朋友","matching_task","生人","[""<img src=\""../../test_img/15.png\"" width=150 style=\""vertical-align:middle\"">---自我"",""<img src=\""../../test_img/26.png\"" width=150 style=\""vertical-align:middle\"">---生人"",""<img src=\""../../test_img/22.png\"" width=150 style=\""vertical-align:middle\"">---朋友""]","","",""
"","","","","","html-keyboard-response","107","393172","0.0-9.0-0.0-0.0-0.0-1.23","null","<span style='color:GreenYellow; font-size: 70px;'>正确! </span>","null","","","","","","","","","","","","","","","","","","","","","","","","","feedback_test","",""
"","","","","","psychophysics","108","394974","0.0-9.0-0.0-0.0-0.0-0.24","801","","arrowleft","","","","","","","","","","","","","key","arrowleft","16.667289719626385","720","446","arrowleft","true","../../test_img/15.png","自我","matching_task","自我","[""<img src=\""../../test_img/15.png\"" width=150 style=\""vertical-align:middle\"">---自我"",""<img src=\""../../test_img/26.png\"" width=150 style=\""vertical-align:middle\"">---生人"",""<img src=\""../../test_img/22.png\"" width=150 style=\""vertical-align:middle\"">---朋友""]","","",""
"","","","","","html-keyboard-response","109","395476","0.0-9.0-0.0-0.0-0.0-1.24","null","<span style='color:GreenYellow; font-size: 70px;'>正确! </span>","null","","","","","","","","","","","","","","","","","","","","","","","","","feedback_test","",""
"","","","","","psychophysics","110","397205","0.0-9.0-0.0-0.0-0.0-0.25","726","","arrowleft","","","","","","","","","","","","","key","arrowleft","16.657843137254673","720","446","arrowleft","true","../../test_img/26.png","生人","matching_task","生人","[""<img src=\""../../test_img/15.png\"" width=150 style=\""vertical-align:middle\"">---自我"",""<img src=\""../../test_img/26.png\"" width=150 style=\""vertical-align:middle\"">---生人"",""<img src=\""../../test_img/22.png\"" width=150 style=\""vertical-align:middle\"">---朋友""]","","",""
"","","","","","html-keyboard-response","111","397706","0.0-9.0-0.0-0.0-0.0-1.25","null","<span style='color:GreenYellow; font-size: 70px;'>正确! </span>","null","","","","","","","","","","","","","","","","","","","","","","","","","feedback_test","",""
"","","","","","psychophysics","112","399200","0.0-9.0-0.0-0.0-0.0-0.26","493","","arrowleft","","","","","","","","","","","","","key","arrowleft","16.665909090908826","720","446","arrowleft","true","../../test_img/22.png","朋友","matching_task","朋友","[""<img src=\""../../test_img/15.png\"" width=150 style=\""vertical-align:middle\"">---自我"",""<img src=\""../../test_img/26.png\"" width=150 style=\""vertical-align:middle\"">---生人"",""<img src=\""../../test_img/22.png\"" width=150 style=\""vertical-align:middle\"">---朋友""]","","",""
"","","","","","html-keyboard-response","113","399702","0.0-9.0-0.0-0.0-0.0-1.26","null","<span style='color:GreenYellow; font-size: 70px;'>正确! </span>","null","","","","","","","","","","","","","","","","","","","","","","","","","feedback_test","",""
"","","","","","psychophysics","114","402204","0.0-9.0-0.0-0.0-0.0-0.27","null","","null","","","","","","","","","","","","","key","null","16.666442953020056","720","446","arrowleft","false","../../test_img/26.png","生人","matching_task","生人","[""<img src=\""../../test_img/15.png\"" width=150 style=\""vertical-align:middle\"">---自我"",""<img src=\""../../test_img/26.png\"" width=150 style=\""vertical-align:middle\"">---生人"",""<img src=\""../../test_img/22.png\"" width=150 style=\""vertical-align:middle\"">---朋友""]","","",""
"","","","","","html-keyboard-response","115","402706","0.0-9.0-0.0-0.0-0.0-1.27","null","<span class='add_' style='color:yellow; font-size: 70px;'> 太慢! </span>","null","","","","","","","","","","","","","","","","","","","","","","","","","feedback_test","",""
"","","","","","psychophysics","116","404291","0.0-9.0-0.0-0.0-0.0-0.28","583","","arrowright","","","","","","","","","","","","","key","arrowright","16.671276595744434","720","446","arrowright","true","../../test_img/22.png","自我","matching_task","朋友","[""<img src=\""../../test_img/15.png\"" width=150 style=\""vertical-align:middle\"">---自我"",""<img src=\""../../test_img/26.png\"" width=150 style=\""vertical-align:middle\"">---生人"",""<img src=\""../../test_img/22.png\"" width=150 style=\""vertical-align:middle\"">---朋友""]","","",""
"","","","","","html-keyboard-response","117","404793","0.0-9.0-0.0-0.0-0.0-1.28","null","<span style='color:GreenYellow; font-size: 70px;'>正确! </span>","null","","","","","","","","","","","","","","","","","","","","","","","","","feedback_test","",""
"","","","","","psychophysics","118","406538","0.0-9.0-0.0-0.0-0.0-0.29","742","","arrowright","","","","","","","","","","","","","key","arrowright","16.675728155340146","720","446","arrowright","true","../../test_img/22.png","生人","matching_task","朋友","[""<img src=\""../../test_img/15.png\"" width=150 style=\""vertical-align:middle\"">---自我"",""<img src=\""../../test_img/26.png\"" width=150 style=\""vertical-align:middle\"">---生人"",""<img src=\""../../test_img/22.png\"" width=150 style=\""vertical-align:middle\"">---朋友""]","","",""
"","","","","","html-keyboard-response","119","407039","0.0-9.0-0.0-0.0-0.0-1.29","null","<span style='color:GreenYellow; font-size: 70px;'>正确! </span>","null","","","","","","","","","","","","","","","","","","","","","","","","","feedback_test","",""
"","","","","","psychophysics","120","408755","0.0-9.0-0.0-0.0-0.0-0.30","713","","arrowright","","","","","","","","","","","","","key","arrowright","16.666666666666668","720","446","arrowright","true","../../test_img/26.png","朋友","matching_task","生人","[""<img src=\""../../test_img/15.png\"" width=150 style=\""vertical-align:middle\"">---自我"",""<img src=\""../../test_img/26.png\"" width=150 style=\""vertical-align:middle\"">---生人"",""<img src=\""../../test_img/22.png\"" width=150 style=\""vertical-align:middle\"">---朋友""]","","",""
"","","","","","html-keyboard-response","121","409256","0.0-9.0-0.0-0.0-0.0-1.30","null","<span style='color:GreenYellow; font-size: 70px;'>正确! </span>","null","","","","","","","","","","","","","","","","","","","","","","","","","feedback_test","",""
"","","","","","psychophysics","122","410848","0.0-9.0-0.0-0.0-0.0-0.31","589","","arrowright","","","","","","","","","","","","","key","arrowright","16.667021276595868","720","446","arrowright","true","../../test_img/15.png","朋友","matching_task","自我","[""<img src=\""../../test_img/15.png\"" width=150 style=\""vertical-align:middle\"">---自我"",""<img src=\""../../test_img/26.png\"" width=150 style=\""vertical-align:middle\"">---生人"",""<img src=\""../../test_img/22.png\"" width=150 style=\""vertical-align:middle\"">---朋友""]","","",""
"","","","","","html-keyboard-response","123","411350","0.0-9.0-0.0-0.0-0.0-1.31","null","<span style='color:GreenYellow; font-size: 70px;'>正确! </span>","null","","","","","","","","","","","","","","","","","","","","","","","","","feedback_test","",""
"","","","","","psychophysics","124","413088","0.0-9.0-0.0-0.0-0.0-0.32","737","","arrowright","","","","","","","","","","","","","key","arrowright","16.66699029126225","720","446","arrowright","true","../../test_img/26.png","自我","matching_task","生人","[""<img src=\""../../test_img/15.png\"" width=150 style=\""vertical-align:middle\"">---自我"",""<img src=\""../../test_img/26.png\"" width=150 style=\""vertical-align:middle\"">---生人"",""<img src=\""../../test_img/22.png\"" width=150 style=\""vertical-align:middle\"">---朋友""]","","",""
"","","","","","html-keyboard-response","125","413590","0.0-9.0-0.0-0.0-0.0-1.32","null","<span style='color:GreenYellow; font-size: 70px;'>正确! </span>","null","","","","","","","","","","","","","","","","","","","","","","","","","feedback_test","",""
"","","","","","psychophysics","126","415206","0.0-9.0-0.0-0.0-0.0-0.33","614","","arrowright","","","","","","","","","","","","","key","arrowright","16.667708333333092","720","446","arrowright","true","../../test_img/15.png","生人","matching_task","自我","[""<img src=\""../../test_img/15.png\"" width=150 style=\""vertical-align:middle\"">---自我"",""<img src=\""../../test_img/26.png\"" width=150 style=\""vertical-align:middle\"">---生人"",""<img src=\""../../test_img/22.png\"" width=150 style=\""vertical-align:middle\"">---朋友""]","","",""
"","","","","","html-keyboard-response","127","415707","0.0-9.0-0.0-0.0-0.0-1.33","null","<span style='color:GreenYellow; font-size: 70px;'>正确! </span>","null","","","","","","","","","","","","","","","","","","","","","","","","","feedback_test","",""
"","","","","","psychophysics","128","417374","0.0-9.0-0.0-0.0-0.0-0.34","664","","arrowleft","","","","","","","","","","","","","key","arrowleft","16.6653061224491","720","446","arrowleft","true","../../test_img/22.png","朋友","matching_task","朋友","[""<img src=\""../../test_img/15.png\"" width=150 style=\""vertical-align:middle\"">---自我"",""<img src=\""../../test_img/26.png\"" width=150 style=\""vertical-align:middle\"">---生人"",""<img src=\""../../test_img/22.png\"" width=150 style=\""vertical-align:middle\"">---朋友""]","","",""
"","","","","","html-keyboard-response","129","417875","0.0-9.0-0.0-0.0-0.0-1.34","null","<span style='color:GreenYellow; font-size: 70px;'>正确! </span>","null","","","","","","","","","","","","","","","","","","","","","","","","","feedback_test","",""
"","","","","","psychophysics","130","419818","0.0-9.0-0.0-0.0-0.0-0.35","942","","arrowleft","","","","","","","","","","","","","key","arrowleft","16.66695652173923","720","446","arrowleft","true","../../test_img/15.png","自我","matching_task","自我","[""<img src=\""../../test_img/15.png\"" width=150 style=\""vertical-align:middle\"">---自我"",""<img src=\""../../test_img/26.png\"" width=150 style=\""vertical-align:middle\"">---生人"",""<img src=\""../../test_img/22.png\"" width=150 style=\""vertical-align:middle\"">---朋友""]","","",""
"","","","","","html-keyboard-response","131","420320","0.0-9.0-0.0-0.0-0.0-1.35","null","<span style='color:GreenYellow; font-size: 70px;'>正确! </span>","null","","","","","","","","","","","","","","","","","","","","","","","","","feedback_test","",""
"","","","","","psychophysics","132","422022","0.0-9.0-0.0-0.0-0.0-0.36","700","","arrowright","","","","","","","","","","","","","key","arrowright","16.671287128712756","720","446","arrowright","true","../../test_img/22.png","自我","matching_task","朋友","[""<img src=\""../../test_img/15.png\"" width=150 style=\""vertical-align:middle\"">---自我"",""<img src=\""../../test_img/26.png\"" width=150 style=\""vertical-align:middle\"">---生人"",""<img src=\""../../test_img/22.png\"" width=150 style=\""vertical-align:middle\"">---朋友""]","","",""
"","","","","","html-keyboard-response","133","422523","0.0-9.0-0.0-0.0-0.0-1.36","null","<span style='color:GreenYellow; font-size: 70px;'>正确! </span>","null","","","","","","","","","","","","","","","","","","","","","","","","","feedback_test","",""
"","","","","","psychophysics","134","424190","0.0-9.0-0.0-0.0-0.0-0.37","665","","arrowleft","","","","","","","","","","","","","key","arrowleft","16.66363636363648","720","446","arrowleft","true","../../test_img/22.png","朋友","matching_task","朋友","[""<img src=\""../../test_img/15.png\"" width=150 style=\""vertical-align:middle\"">---自我"",""<img src=\""../../test_img/26.png\"" width=150 style=\""vertical-align:middle\"">---生人"",""<img src=\""../../test_img/22.png\"" width=150 style=\""vertical-align:middle\"">---朋友""]","","",""
"","","","","","html-keyboard-response","135","424692","0.0-9.0-0.0-0.0-0.0-1.37","null","<span style='color:GreenYellow; font-size: 70px;'>正确! </span>","null","","","","","","","","","","","","","","","","","","","","","","","","","feedback_test","",""
"","","","","","psychophysics","136","426397","0.0-9.0-0.0-0.0-0.0-0.38","703","","arrowleft","","","","","","","","","","","","","key","arrowleft","16.667000000000115","720","446","arrowleft","true","../../test_img/26.png","生人","matching_task","生人","[""<img src=\""../../test_img/15.png\"" width=150 style=\""vertical-align:middle\"">---自我"",""<img src=\""../../test_img/26.png\"" width=150 style=\""vertical-align:middle\"">---生人"",""<img src=\""../../test_img/22.png\"" width=150 style=\""vertical-align:middle\"">---朋友""]","","",""
"","","","","","html-keyboard-response","137","426898","0.0-9.0-0.0-0.0-0.0-1.38","null","<span style='color:GreenYellow; font-size: 70px;'>正确! </span>","null","","","","","","","","","","","","","","","","","","","","","","","","","feedback_test","",""
"","","","","","psychophysics","138","428468","0.0-9.0-0.0-0.0-0.0-0.39","567","","arrowleft","","","","","","","","","","","","","key","arrowleft","16.677419354838708","720","446","arrowleft","true","../../test_img/15.png","自我","matching_task","自我","[""<img src=\""../../test_img/15.png\"" width=150 style=\""vertical-align:middle\"">---自我"",""<img src=\""../../test_img/26.png\"" width=150 style=\""vertical-align:middle\"">---生人"",""<img src=\""../../test_img/22.png\"" width=150 style=\""vertical-align:middle\"">---朋友""]","","",""
"","","","","","html-keyboard-response","139","428969","0.0-9.0-0.0-0.0-0.0-1.39","null","<span style='color:GreenYellow; font-size: 70px;'>正确! </span>","null","","","","","","","","","","","","","","","","","","","","","","","","","feedback_test","",""
"","","","","","psychophysics","140","430540","0.0-9.0-0.0-0.0-0.0-0.40","570","","arrowright","","","","","","","","","","","","","key","arrowright","16.667741935484248","720","446","arrowright","true","../../test_img/22.png","生人","matching_task","朋友","[""<img src=\""../../test_img/15.png\"" width=150 style=\""vertical-align:middle\"">---自我"",""<img src=\""../../test_img/26.png\"" width=150 style=\""vertical-align:middle\"">---生人"",""<img src=\""../../test_img/22.png\"" width=150 style=\""vertical-align:middle\"">---朋友""]","","",""
"","","","","","html-keyboard-response","141","431041","0.0-9.0-0.0-0.0-0.0-1.40","null","<span style='color:GreenYellow; font-size: 70px;'>正确! </span>","null","","","","","","","","","","","","","","","","","","","","","","","","","feedback_test","",""
"","","","","","psychophysics","142","432934","0.0-9.0-0.0-0.0-0.0-0.41","890","","arrowright","","","","","","","","","","","","","key","arrowright","16.667567567567357","720","446","arrowright","true","../../test_img/15.png","朋友","matching_task","自我","[""<img src=\""../../test_img/15.png\"" width=150 style=\""vertical-align:middle\"">---自我"",""<img src=\""../../test_img/26.png\"" width=150 style=\""vertical-align:middle\"">---生人"",""<img src=\""../../test_img/22.png\"" width=150 style=\""vertical-align:middle\"">---朋友""]","","",""
"","","","","","html-keyboard-response","143","433435","0.0-9.0-0.0-0.0-0.0-1.41","null","<span style='color:GreenYellow; font-size: 70px;'>正确! </span>","null","","","","","","","","","","","","","","","","","","","","","","","","","feedback_test","",""
"","","","","","psychophysics","144","435321","0.0-9.0-0.0-0.0-0.0-0.42","885","","arrowright","","","","","","","","","","","","","key","arrowright","16.66696428571439","720","446","arrowright","true","../../test_img/15.png","生人","matching_task","自我","[""<img src=\""../../test_img/15.png\"" width=150 style=\""vertical-align:middle\"">---自我"",""<img src=\""../../test_img/26.png\"" width=150 style=\""vertical-align:middle\"">---生人"",""<img src=\""../../test_img/22.png\"" width=150 style=\""vertical-align:middle\"">---朋友""]","","",""
"","","","","","html-keyboard-response","145","435822","0.0-9.0-0.0-0.0-0.0-1.42","null","<span style='color:GreenYellow; font-size: 70px;'>正确! </span>","null","","","","","","","","","","","","","","","","","","","","","","","","","feedback_test","",""
"","","","","","psychophysics","146","437350","0.0-9.0-0.0-0.0-0.0-0.43","526","","arrowleft","","","","","","","","","","","","","key","arrowleft","16.665555555555166","720","446","arrowleft","true","../../test_img/22.png","朋友","matching_task","朋友","[""<img src=\""../../test_img/15.png\"" width=150 style=\""vertical-align:middle\"">---自我"",""<img src=\""../../test_img/26.png\"" width=150 style=\""vertical-align:middle\"">---生人"",""<img src=\""../../test_img/22.png\"" width=150 style=\""vertical-align:middle\"">---朋友""]","","",""
"","","","","","html-keyboard-response","147","437851","0.0-9.0-0.0-0.0-0.0-1.43","null","<span style='color:GreenYellow; font-size: 70px;'>正确! </span>","null","","","","","","","","","","","","","","","","","","","","","","","","","feedback_test","",""
"","","","","","psychophysics","148","439598","0.0-9.0-0.0-0.0-0.0-0.44","746","","arrowright","","","","","","","","","","","","","key","arrowright","16.66699029126225","720","446","arrowright","true","../../test_img/26.png","自我","matching_task","生人","[""<img src=\""../../test_img/15.png\"" width=150 style=\""vertical-align:middle\"">---自我"",""<img src=\""../../test_img/26.png\"" width=150 style=\""vertical-align:middle\"">---生人"",""<img src=\""../../test_img/22.png\"" width=150 style=\""vertical-align:middle\"">---朋友""]","","",""
"","","","","","html-keyboard-response","149","440099","0.0-9.0-0.0-0.0-0.0-1.44","null","<span style='color:GreenYellow; font-size: 70px;'>正确! </span>","null","","","","","","","","","","","","","","","","","","","","","","","","","feedback_test","",""
"","","","","","psychophysics","150","441815","0.0-9.0-0.0-0.0-0.0-0.45","715","","arrowleft","","","","","","","","","","","","","key","arrowleft","16.668316831683168","720","446","arrowleft","true","../../test_img/15.png","自我","matching_task","自我","[""<img src=\""../../test_img/15.png\"" width=150 style=\""vertical-align:middle\"">---自我"",""<img src=\""../../test_img/26.png\"" width=150 style=\""vertical-align:middle\"">---生人"",""<img src=\""../../test_img/22.png\"" width=150 style=\""vertical-align:middle\"">---朋友""]","","",""
"","","","","","html-keyboard-response","151","442316","0.0-9.0-0.0-0.0-0.0-1.45","null","<span style='color:GreenYellow; font-size: 70px;'>正确! </span>","null","","","","","","","","","","","","","","","","","","","","","","","","","feedback_test","",""
"","","","","","psychophysics","152","443904","0.0-9.0-0.0-0.0-0.0-0.46","586","","arrowright","","","","","","","","","","","","","key","arrowright","16.668085106382854","720","446","arrowleft","false","../../test_img/26.png","生人","matching_task","生人","[""<img src=\""../../test_img/15.png\"" width=150 style=\""vertical-align:middle\"">---自我"",""<img src=\""../../test_img/26.png\"" width=150 style=\""vertical-align:middle\"">---生人"",""<img src=\""../../test_img/22.png\"" width=150 style=\""vertical-align:middle\"">---朋友""]","","",""
"","","","","","html-keyboard-response","153","444406","0.0-9.0-0.0-0.0-0.0-1.46","null","<span style='color:red; font-size: 70px;'>错误! </span>","null","","","","","","","","","","","","","","","","","","","","","","","","","feedback_test","",""
"","","","","","psychophysics","154","446101","0.0-9.0-0.0-0.0-0.0-0.47","693","","arrowright","","","","","","","","","","","","","key","arrowright","16.666336633663253","720","446","arrowright","true","../../test_img/26.png","朋友","matching_task","生人","[""<img src=\""../../test_img/15.png\"" width=150 style=\""vertical-align:middle\"">---自我"",""<img src=\""../../test_img/26.png\"" width=150 style=\""vertical-align:middle\"">---生人"",""<img src=\""../../test_img/22.png\"" width=150 style=\""vertical-align:middle\"">---朋友""]","","",""
"","","","","","html-keyboard-response","155","446603","0.0-9.0-0.0-0.0-0.0-1.47","null","<span style='color:GreenYellow; font-size: 70px;'>正确! </span>","null","","","","","","","","","","","","","","","","","","","","","","","","","feedback_test","",""
"","","","","","psychophysics","156","448276","0.0-9.0-0.0-0.0-0.0-0.48","671","","arrowleft","","","","","","","","","","","","","key","arrowleft","16.672727272727037","720","446","arrowleft","true","../../test_img/26.png","生人","matching_task","生人","[""<img src=\""../../test_img/15.png\"" width=150 style=\""vertical-align:middle\"">---自我"",""<img src=\""../../test_img/26.png\"" width=150 style=\""vertical-align:middle\"">---生人"",""<img src=\""../../test_img/22.png\"" width=150 style=\""vertical-align:middle\"">---朋友""]","","",""
"","","","","","html-keyboard-response","157","448777","0.0-9.0-0.0-0.0-0.0-1.48","null","<span style='color:GreenYellow; font-size: 70px;'>正确! </span>","null","","","","","","","","","","","","","","","","","","","","","","","","","feedback_test","",""
"","","","","","psychophysics","158","450320","0.0-9.0-0.0-0.0-0.0-0.49","541","","arrowleft","","","","","","","","","","","","","key","arrowleft","16.67032967032967","720","446","arrowright","false","../../test_img/15.png","朋友","matching_task","自我","[""<img src=\""../../test_img/15.png\"" width=150 style=\""vertical-align:middle\"">---自我"",""<img src=\""../../test_img/26.png\"" width=150 style=\""vertical-align:middle\"">---生人"",""<img src=\""../../test_img/22.png\"" width=150 style=\""vertical-align:middle\"">---朋友""]","","",""
"","","","","","html-keyboard-response","159","450821","0.0-9.0-0.0-0.0-0.0-1.49","null","<span style='color:red; font-size: 70px;'>错误! </span>","null","","","","","","","","","","","","","","","","","","","","","","","","","feedback_test","",""
"","","","","","psychophysics","160","452584","0.0-9.0-0.0-0.0-0.0-0.50","761","","arrowleft","","","","","","","","","","","","","key","arrowleft","16.660952380952047","720","446","arrowleft","true","../../test_img/15.png","自我","matching_task","自我","[""<img src=\""../../test_img/15.png\"" width=150 style=\""vertical-align:middle\"">---自我"",""<img src=\""../../test_img/26.png\"" width=150 style=\""vertical-align:middle\"">---生人"",""<img src=\""../../test_img/22.png\"" width=150 style=\""vertical-align:middle\"">---朋友""]","","",""
"","","","","","html-keyboard-response","161","453085","0.0-9.0-0.0-0.0-0.0-1.50","null","<span style='color:GreenYellow; font-size: 70px;'>正确! </span>","null","","","","","","","","","","","","","","","","","","","","","","","","","feedback_test","",""
"","","","","","psychophysics","162","454592","0.0-9.0-0.0-0.0-0.0-0.51","505","","arrowleft","","","","","","","","","","","","","key","arrowleft","16.66741573033734","720","446","arrowleft","true","../../test_img/15.png","自我","matching_task","自我","[""<img src=\""../../test_img/15.png\"" width=150 style=\""vertical-align:middle\"">---自我"",""<img src=\""../../test_img/26.png\"" width=150 style=\""vertical-align:middle\"">---生人"",""<img src=\""../../test_img/22.png\"" width=150 style=\""vertical-align:middle\"">---朋友""]","","",""
"","","","","","html-keyboard-response","163","455093","0.0-9.0-0.0-0.0-0.0-1.51","null","<span style='color:GreenYellow; font-size: 70px;'>正确! </span>","null","","","","","","","","","","","","","","","","","","","","","","","","","feedback_test","",""
"","","","","","psychophysics","164","456731","0.0-9.0-0.0-0.0-0.0-0.52","635","","arrowright","","","","","","","","","","","","","key","arrowright","16.666666666666668","720","446","arrowright","true","../../test_img/15.png","生人","matching_task","自我","[""<img src=\""../../test_img/15.png\"" width=150 style=\""vertical-align:middle\"">---自我"",""<img src=\""../../test_img/26.png\"" width=150 style=\""vertical-align:middle\"">---生人"",""<img src=\""../../test_img/22.png\"" width=150 style=\""vertical-align:middle\"">---朋友""]","","",""
"","","","","","html-keyboard-response","165","457233","0.0-9.0-0.0-0.0-0.0-1.52","null","<span style='color:GreenYellow; font-size: 70px;'>正确! </span>","null","","","","","","","","","","","","","","","","","","","","","","","","","feedback_test","",""
"","","","","","psychophysics","166","459084","0.0-9.0-0.0-0.0-0.0-0.53","849","","arrowright","","","","","","","","","","","","","key","arrowright","16.666972477064327","720","446","arrowright","true","../../test_img/26.png","自我","matching_task","生人","[""<img src=\""../../test_img/15.png\"" width=150 style=\""vertical-align:middle\"">---自我"",""<img src=\""../../test_img/26.png\"" width=150 style=\""vertical-align:middle\"">---生人"",""<img src=\""../../test_img/22.png\"" width=150 style=\""vertical-align:middle\"">---朋友""]","","",""
"","","","","","html-keyboard-response","167","459585","0.0-9.0-0.0-0.0-0.0-1.53","null","<span style='color:GreenYellow; font-size: 70px;'>正确! </span>","null","","","","","","","","","","","","","","","","","","","","","","","","","feedback_test","",""
"","","","","","psychophysics","168","461488","0.0-9.0-0.0-0.0-0.0-0.54","901","","arrowright","","","","","","","","","","","","","key","arrowright","16.66725663716783","720","446","arrowright","true","../../test_img/26.png","朋友","matching_task","生人","[""<img src=\""../../test_img/15.png\"" width=150 style=\""vertical-align:middle\"">---自我"",""<img src=\""../../test_img/26.png\"" width=150 style=\""vertical-align:middle\"">---生人"",""<img src=\""../../test_img/22.png\"" width=150 style=\""vertical-align:middle\"">---朋友""]","","",""
"","","","","","html-keyboard-response","169","461990","0.0-9.0-0.0-0.0-0.0-1.54","null","<span style='color:GreenYellow; font-size: 70px;'>正确! </span>","null","","","","","","","","","","","","","","","","","","","","","","","","","feedback_test","",""
"","","","","","psychophysics","170","463616","0.0-9.0-0.0-0.0-0.0-0.55","624","","arrowleft","","","","","","","","","","","","","key","arrowleft","16.666666666666668","720","446","arrowleft","true","../../test_img/22.png","朋友","matching_task","朋友","[""<img src=\""../../test_img/15.png\"" width=150 style=\""vertical-align:middle\"">---自我"",""<img src=\""../../test_img/26.png\"" width=150 style=\""vertical-align:middle\"">---生人"",""<img src=\""../../test_img/22.png\"" width=150 style=\""vertical-align:middle\"">---朋友""]","","",""
"","","","","","html-keyboard-response","171","464118","0.0-9.0-0.0-0.0-0.0-1.55","null","<span style='color:GreenYellow; font-size: 70px;'>正确! </span>","null","","","","","","","","","","","","","","","","","","","","","","","","","feedback_test","",""
"","","","","","psychophysics","172","465897","0.0-9.0-0.0-0.0-0.0-0.56","777","","arrowleft","","","","","","","","","","","","","key","arrowleft","16.666666666666668","720","446","arrowleft","true","../../test_img/26.png","生人","matching_task","生人","[""<img src=\""../../test_img/15.png\"" width=150 style=\""vertical-align:middle\"">---自我"",""<img src=\""../../test_img/26.png\"" width=150 style=\""vertical-align:middle\"">---生人"",""<img src=\""../../test_img/22.png\"" width=150 style=\""vertical-align:middle\"">---朋友""]","","",""
"","","","","","html-keyboard-response","173","466398","0.0-9.0-0.0-0.0-0.0-1.56","null","<span style='color:GreenYellow; font-size: 70px;'>正确! </span>","null","","","","","","","","","","","","","","","","","","","","","","","","","feedback_test","",""
"","","","","","psychophysics","174","468001","0.0-9.0-0.0-0.0-0.0-0.57","601","","arrowleft","","","","","","","","","","","","","key","arrowleft","16.661052631578826","720","446","arrowright","false","../../test_img/22.png","自我","matching_task","朋友","[""<img src=\""../../test_img/15.png\"" width=150 style=\""vertical-align:middle\"">---自我"",""<img src=\""../../test_img/26.png\"" width=150 style=\""vertical-align:middle\"">---生人"",""<img src=\""../../test_img/22.png\"" width=150 style=\""vertical-align:middle\"">---朋友""]","","",""
"","","","","","html-keyboard-response","175","468503","0.0-9.0-0.0-0.0-0.0-1.57","null","<span style='color:red; font-size: 70px;'>错误! </span>","null","","","","","","","","","","","","","","","","","","","","","","","","","feedback_test","",""
"","","","","","psychophysics","176","470282","0.0-9.0-0.0-0.0-0.0-0.58","777","","arrowright","","","","","","","","","","","","","key","arrowright","16.667619047618825","720","446","arrowright","true","../../test_img/22.png","生人","matching_task","朋友","[""<img src=\""../../test_img/15.png\"" width=150 style=\""vertical-align:middle\"">---自我"",""<img src=\""../../test_img/26.png\"" width=150 style=\""vertical-align:middle\"">---生人"",""<img src=\""../../test_img/22.png\"" width=150 style=\""vertical-align:middle\"">---朋友""]","","",""
"","","","","","html-keyboard-response","177","470783","0.0-9.0-0.0-0.0-0.0-1.58","null","<span style='color:GreenYellow; font-size: 70px;'>正确! </span>","null","","","","","","","","","","","","","","","","","","","","","","","","","feedback_test","",""
"","","","","","psychophysics","178","472403","0.0-9.0-0.0-0.0-0.0-0.59","620","","arrowleft","","","","","","","","","","","","","key","arrowleft","16.67499999999988","720","446","arrowleft","true","../../test_img/22.png","朋友","matching_task","朋友","[""<img src=\""../../test_img/15.png\"" width=150 style=\""vertical-align:middle\"">---自我"",""<img src=\""../../test_img/26.png\"" width=150 style=\""vertical-align:middle\"">---生人"",""<img src=\""../../test_img/22.png\"" width=150 style=\""vertical-align:middle\"">---朋友""]","","",""
"","","","","","html-keyboard-response","179","472904","0.0-9.0-0.0-0.0-0.0-1.59","null","<span style='color:GreenYellow; font-size: 70px;'>正确! </span>","null","","","","","","","","","","","","","","","","","","","","","","","","","feedback_test","",""
"","","","","","psychophysics","180","474639","0.0-9.0-0.0-0.0-0.0-0.60","732","","arrowright","","","","","","","","","","","","","key","arrowright","16.667961165048432","720","446","arrowright","true","../../test_img/15.png","生人","matching_task","自我","[""<img src=\""../../test_img/15.png\"" width=150 style=\""vertical-align:middle\"">---自我"",""<img src=\""../../test_img/26.png\"" width=150 style=\""vertical-align:middle\"">---生人"",""<img src=\""../../test_img/22.png\"" width=150 style=\""vertical-align:middle\"">---朋友""]","","",""
"","","","","","html-keyboard-response","181","475140","0.0-9.0-0.0-0.0-0.0-1.60","null","<span style='color:GreenYellow; font-size: 70px;'>正确! </span>","null","","","","","","","","","","","","","","","","","","","","","","","","","feedback_test","",""
"","","","","","psychophysics","182","476815","0.0-9.0-0.0-0.0-0.0-0.61","672","","arrowleft","","","","","","","","","","","","","key","arrowleft","16.666326530612125","720","446","arrowleft","true","../../test_img/15.png","自我","matching_task","自我","[""<img src=\""../../test_img/15.png\"" width=150 style=\""vertical-align:middle\"">---自我"",""<img src=\""../../test_img/26.png\"" width=150 style=\""vertical-align:middle\"">---生人"",""<img src=\""../../test_img/22.png\"" width=150 style=\""vertical-align:middle\"">---朋友""]","","",""
"","","","","","html-keyboard-response","183","477317","0.0-9.0-0.0-0.0-0.0-1.61","null","<span style='color:GreenYellow; font-size: 70px;'>正确! </span>","null","","","","","","","","","","","","","","","","","","","","","","","","","feedback_test","",""
"","","","","","psychophysics","184","479038","0.0-9.0-0.0-0.0-0.0-0.62","719","","arrowleft","","","","","","","","","","","","","key","arrowleft","16.66764705882387","720","446","arrowleft","true","../../test_img/22.png","朋友","matching_task","朋友","[""<img src=\""../../test_img/15.png\"" width=150 style=\""vertical-align:middle\"">---自我"",""<img src=\""../../test_img/26.png\"" width=150 style=\""vertical-align:middle\"">---生人"",""<img src=\""../../test_img/22.png\"" width=150 style=\""vertical-align:middle\"">---朋友""]","","",""
"","","","","","html-keyboard-response","185","479540","0.0-9.0-0.0-0.0-0.0-1.62","null","<span style='color:GreenYellow; font-size: 70px;'>正确! </span>","null","","","","","","","","","","","","","","","","","","","","","","","","","feedback_test","",""
"","","","","","psychophysics","186","481199","0.0-9.0-0.0-0.0-0.0-0.63","657","","arrowright","","","","","","","","","","","","","key","arrowright","16.666326530612125","720","446","arrowright","true","../../test_img/26.png","朋友","matching_task","生人","[""<img src=\""../../test_img/15.png\"" width=150 style=\""vertical-align:middle\"">---自我"",""<img src=\""../../test_img/26.png\"" width=150 style=\""vertical-align:middle\"">---生人"",""<img src=\""../../test_img/22.png\"" width=150 style=\""vertical-align:middle\"">---朋友""]","","",""
"","","","","","html-keyboard-response","187","481700","0.0-9.0-0.0-0.0-0.0-1.63","null","<span style='color:GreenYellow; font-size: 70px;'>正确! </span>","null","","","","","","","","","","","","","","","","","","","","","","","","","feedback_test","",""
"","","","","","psychophysics","188","483516","0.0-9.0-0.0-0.0-0.0-0.64","814","","arrowleft","","","","","","","","","","","","","key","arrowleft","16.667289719626385","720","446","arrowleft","true","../../test_img/26.png","生人","matching_task","生人","[""<img src=\""../../test_img/15.png\"" width=150 style=\""vertical-align:middle\"">---自我"",""<img src=\""../../test_img/26.png\"" width=150 style=\""vertical-align:middle\"">---生人"",""<img src=\""../../test_img/22.png\"" width=150 style=\""vertical-align:middle\"">---朋友""]","","",""
"","","","","","html-keyboard-response","189","484017","0.0-9.0-0.0-0.0-0.0-1.64","null","<span style='color:GreenYellow; font-size: 70px;'>正确! </span>","null","","","","","","","","","","","","","","","","","","","","","","","","","feedback_test","",""
"","","","","","psychophysics","190","485906","0.0-9.0-0.0-0.0-0.0-0.65","887","","arrowright","","","","","","","","","","","","","key","arrowright","16.667857142857038","720","446","arrowright","true","../../test_img/22.png","生人","matching_task","朋友","[""<img src=\""../../test_img/15.png\"" width=150 style=\""vertical-align:middle\"">---自我"",""<img src=\""../../test_img/26.png\"" width=150 style=\""vertical-align:middle\"">---生人"",""<img src=\""../../test_img/22.png\"" width=150 style=\""vertical-align:middle\"">---朋友""]","","",""
"","","","","","html-keyboard-response","191","486408","0.0-9.0-0.0-0.0-0.0-1.65","null","<span style='color:GreenYellow; font-size: 70px;'>正确! </span>","null","","","","","","","","","","","","","","","","","","","","","","","","","feedback_test","",""
"","","","","","psychophysics","192","488056","0.0-9.0-0.0-0.0-0.0-0.66","646","","arrowleft","","","","","","","","","","","","","key","arrowleft","16.66701030927847","720","446","arrowleft","true","../../test_img/22.png","朋友","matching_task","朋友","[""<img src=\""../../test_img/15.png\"" width=150 style=\""vertical-align:middle\"">---自我"",""<img src=\""../../test_img/26.png\"" width=150 style=\""vertical-align:middle\"">---生人"",""<img src=\""../../test_img/22.png\"" width=150 style=\""vertical-align:middle\"">---朋友""]","","",""
"","","","","","html-keyboard-response","193","488558","0.0-9.0-0.0-0.0-0.0-1.66","null","<span style='color:GreenYellow; font-size: 70px;'>正确! </span>","null","","","","","","","","","","","","","","","","","","","","","","","","","feedback_test","",""
"","","","","","psychophysics","194","490192","0.0-9.0-0.0-0.0-0.0-0.67","631","","arrowright","","","","","","","","","","","","","key","arrowright","16.658333333333456","720","446","arrowright","true","../../test_img/26.png","自我","matching_task","生人","[""<img src=\""../../test_img/15.png\"" width=150 style=\""vertical-align:middle\"">---自我"",""<img src=\""../../test_img/26.png\"" width=150 style=\""vertical-align:middle\"">---生人"",""<img src=\""../../test_img/22.png\"" width=150 style=\""vertical-align:middle\"">---朋友""]","","",""
"","","","","","html-keyboard-response","195","490693","0.0-9.0-0.0-0.0-0.0-1.67","null","<span style='color:GreenYellow; font-size: 70px;'>正确! </span>","null","","","","","","","","","","","","","","","","","","","","","","","","","feedback_test","",""
"","","","","","psychophysics","196","492485","0.0-9.0-0.0-0.0-0.0-0.68","789","","arrowright","","","","","","","","","","","","","key","arrowright","16.672641509433852","720","446","arrowright","true","../../test_img/22.png","自我","matching_task","朋友","[""<img src=\""../../test_img/15.png\"" width=150 style=\""vertical-align:middle\"">---自我"",""<img src=\""../../test_img/26.png\"" width=150 style=\""vertical-align:middle\"">---生人"",""<img src=\""../../test_img/22.png\"" width=150 style=\""vertical-align:middle\"">---朋友""]","","",""
"","","","","","html-keyboard-response","197","492986","0.0-9.0-0.0-0.0-0.0-1.68","null","<span style='color:GreenYellow; font-size: 70px;'>正确! </span>","null","","","","","","","","","","","","","","","","","","","","","","","","","feedback_test","",""
"","","","","","psychophysics","198","495169","0.0-9.0-0.0-0.0-0.0-0.69","1181","","arrowleft","","","","","","","","","","","","","key","arrowleft","16.666923076923165","720","446","arrowright","false","../../test_img/15.png","朋友","matching_task","自我","[""<img src=\""../../test_img/15.png\"" width=150 style=\""vertical-align:middle\"">---自我"",""<img src=\""../../test_img/26.png\"" width=150 style=\""vertical-align:middle\"">---生人"",""<img src=\""../../test_img/22.png\"" width=150 style=\""vertical-align:middle\"">---朋友""]","","",""
"","","","","","html-keyboard-response","199","495670","0.0-9.0-0.0-0.0-0.0-1.69","null","<span style='color:red; font-size: 70px;'>错误! </span>","null","","","","","","","","","","","","","","","","","","","","","","","","","feedback_test","",""
"","","","","","psychophysics","200","497420","0.0-9.0-0.0-0.0-0.0-0.70","748","","arrowleft","","","","","","","","","","","","","key","arrowleft","16.66826923076923","720","446","arrowleft","true","../../test_img/15.png","自我","matching_task","自我","[""<img src=\""../../test_img/15.png\"" width=150 style=\""vertical-align:middle\"">---自我"",""<img src=\""../../test_img/26.png\"" width=150 style=\""vertical-align:middle\"">---生人"",""<img src=\""../../test_img/22.png\"" width=150 style=\""vertical-align:middle\"">---朋友""]","","",""
"","","","","","html-keyboard-response","201","497921","0.0-9.0-0.0-0.0-0.0-1.70","null","<span style='color:GreenYellow; font-size: 70px;'>正确! </span>","null","","","","","","","","","","","","","","","","","","","","","","","","","feedback_test","",""
"","","","","","psychophysics","202","499803","0.0-9.0-0.0-0.0-0.0-0.71","879","","arrowleft","","","","","","","","","","","","","key","arrowleft","16.658928571428987","720","446","arrowleft","true","../../test_img/26.png","生人","matching_task","生人","[""<img src=\""../../test_img/15.png\"" width=150 style=\""vertical-align:middle\"">---自我"",""<img src=\""../../test_img/26.png\"" width=150 style=\""vertical-align:middle\"">---生人"",""<img src=\""../../test_img/22.png\"" width=150 style=\""vertical-align:middle\"">---朋友""]","","",""
"","","","","","html-keyboard-response","203","500304","0.0-9.0-0.0-0.0-0.0-1.71","null","<span style='color:GreenYellow; font-size: 70px;'>正确! </span>","null","","","","","","","","","","","","","","","","","","","","","","","","","feedback_test","",""
"","","","","","html-keyboard-response","204","505779","0.0-9.0-0.0-0.0-1.0","5473","<style>.context{color:white; font-size: 35px; line-height:40px}</style>                          <div><p class='context'>您正确回答了92% 的试次。</p><p class='context'>您的平均反应时为731毫秒。</p><p class='context'>请按任意键进入休息</p></div>"," ","","","","","","","","","","","","","","","","","","","","","","","","","","",""
"","","","","","html-button-response","205","535165","0.0-9.0-0.0-0.0-2.0","29385","
                    <p>知觉匹配任务中，您还剩余4组实验</p>
                    <p>现在是休息时间，当您结束休息后，您可以点击 结束休息 按钮 继续</p>
                    <p>建议休息时间还剩余<span id=""iii"">60</span>秒</p>","0","","","","","","","","","","","","","","","","","","","","","","","","","","",""
"","","","","","psychophysics","206","536832","0.0-9.0-0.0-0.0-0.1-0.72","665","","arrowleft","","","","","","","","","","","","","key","arrowleft","16.6734693877551","720","446","arrowleft","true","../../test_img/15.png","自我","matching_task","自我","[""<img src=\""../../test_img/15.png\"" width=150 style=\""vertical-align:middle\"">---自我"",""<img src=\""../../test_img/26.png\"" width=150 style=\""vertical-align:middle\"">---生人"",""<img src=\""../../test_img/22.png\"" width=150 style=\""vertical-align:middle\"">---朋友""]","","",""
"","","","","","html-keyboard-response","207","537334","0.0-9.0-0.0-0.0-0.1-1.72","null","<span style='color:GreenYellow; font-size: 70px;'>正确! </span>","null","","","","","","","","","","","","","","","","","","","","","","","","","feedback_test","",""
"","","","","","psychophysics","208","539019","0.0-9.0-0.0-0.0-0.1-0.73","684","","arrowleft","","","","","","","","","","","","","key","arrowleft","16.664000000000232","720","446","arrowleft","true","../../test_img/26.png","生人","matching_task","生人","[""<img src=\""../../test_img/15.png\"" width=150 style=\""vertical-align:middle\"">---自我"",""<img src=\""../../test_img/26.png\"" width=150 style=\""vertical-align:middle\"">---生人"",""<img src=\""../../test_img/22.png\"" width=150 style=\""vertical-align:middle\"">---朋友""]","","",""
"","","","","","html-keyboard-response","209","539521","0.0-9.0-0.0-0.0-0.1-1.73","null","<span style='color:GreenYellow; font-size: 70px;'>正确! </span>","null","","","","","","","","","","","","","","","","","","","","","","","","","feedback_test","",""
"","","","","","psychophysics","210","541069","0.0-9.0-0.0-0.0-0.1-0.74","546","","arrowleft","","","","","","","","","","","","","key","arrowleft","16.666304347826593","720","446","arrowleft","true","../../test_img/22.png","朋友","matching_task","朋友","[""<img src=\""../../test_img/15.png\"" width=150 style=\""vertical-align:middle\"">---自我"",""<img src=\""../../test_img/26.png\"" width=150 style=\""vertical-align:middle\"">---生人"",""<img src=\""../../test_img/22.png\"" width=150 style=\""vertical-align:middle\"">---朋友""]","","",""
"","","","","","html-keyboard-response","211","541570","0.0-9.0-0.0-0.0-0.1-1.74","null","<span style='color:GreenYellow; font-size: 70px;'>正确! </span>","null","","","","","","","","","","","","","","","","","","","","","","","","","feedback_test","",""
"","","","","","psychophysics","212","543182","0.0-9.0-0.0-0.0-0.1-0.75","610","","arrowleft","","","","","","","","","","","","","key","arrowleft","16.664210526315543","720","446","arrowright","false","../../test_img/22.png","自我","matching_task","朋友","[""<img src=\""../../test_img/15.png\"" width=150 style=\""vertical-align:middle\"">---自我"",""<img src=\""../../test_img/26.png\"" width=150 style=\""vertical-align:middle\"">---生人"",""<img src=\""../../test_img/22.png\"" width=150 style=\""vertical-align:middle\"">---朋友""]","","",""
"","","","","","html-keyboard-response","213","543683","0.0-9.0-0.0-0.0-0.1-1.75","null","<span style='color:red; font-size: 70px;'>错误! </span>","null","","","","","","","","","","","","","","","","","","","","","","","","","feedback_test","",""
"","","","","","psychophysics","214","545400","0.0-9.0-0.0-0.0-0.1-0.76","716","","arrowright","","","","","","","","","","","","","key","arrowright","16.667326732673498","720","446","arrowright","true","../../test_img/26.png","朋友","matching_task","生人","[""<img src=\""../../test_img/15.png\"" width=150 style=\""vertical-align:middle\"">---自我"",""<img src=\""../../test_img/26.png\"" width=150 style=\""vertical-align:middle\"">---生人"",""<img src=\""../../test_img/22.png\"" width=150 style=\""vertical-align:middle\"">---朋友""]","","",""
"","","","","","html-keyboard-response","215","545902","0.0-9.0-0.0-0.0-0.1-1.76","null","<span style='color:GreenYellow; font-size: 70px;'>正确! </span>","null","","","","","","","","","","","","","","","","","","","","","","","","","feedback_test","",""
"","","","","","psychophysics","216","547582","0.0-9.0-0.0-0.0-0.1-0.77","679","","arrowright","","","","","","","","","","","","","key","arrowright","16.666666666666668","720","446","arrowright","true","../../test_img/15.png","朋友","matching_task","自我","[""<img src=\""../../test_img/15.png\"" width=150 style=\""vertical-align:middle\"">---自我"",""<img src=\""../../test_img/26.png\"" width=150 style=\""vertical-align:middle\"">---生人"",""<img src=\""../../test_img/22.png\"" width=150 style=\""vertical-align:middle\"">---朋友""]","","",""
"","","","","","html-keyboard-response","217","548084","0.0-9.0-0.0-0.0-0.1-1.77","null","<span style='color:GreenYellow; font-size: 70px;'>正确! </span>","null","","","","","","","","","","","","","","","","","","","","","","","","","feedback_test","",""
"","","","","","psychophysics","218","549675","0.0-9.0-0.0-0.0-0.1-0.78","589","","arrowleft","","","","","","","","","","","","","key","arrowleft","16.65851063829812","720","446","arrowleft","true","../../test_img/15.png","自我","matching_task","自我","[""<img src=\""../../test_img/15.png\"" width=150 style=\""vertical-align:middle\"">---自我"",""<img src=\""../../test_img/26.png\"" width=150 style=\""vertical-align:middle\"">---生人"",""<img src=\""../../test_img/22.png\"" width=150 style=\""vertical-align:middle\"">---朋友""]","","",""
"","","","","","html-keyboard-response","219","550177","0.0-9.0-0.0-0.0-0.1-1.78","null","<span style='color:GreenYellow; font-size: 70px;'>正确! </span>","null","","","","","","","","","","","","","","","","","","","","","","","","","feedback_test","",""
"","","","","","psychophysics","220","551808","0.0-9.0-0.0-0.0-0.1-0.79","629","","arrowright","","","","","","","","","","","","","key","arrowright","16.666666666666668","720","446","arrowright","true","../../test_img/22.png","生人","matching_task","朋友","[""<img src=\""../../test_img/15.png\"" width=150 style=\""vertical-align:middle\"">---自我"",""<img src=\""../../test_img/26.png\"" width=150 style=\""vertical-align:middle\"">---生人"",""<img src=\""../../test_img/22.png\"" width=150 style=\""vertical-align:middle\"">---朋友""]","","",""
"","","","","","html-keyboard-response","221","552309","0.0-9.0-0.0-0.0-0.1-1.79","null","<span style='color:GreenYellow; font-size: 70px;'>正确! </span>","null","","","","","","","","","","","","","","","","","","","","","","","","","feedback_test","",""
"","","","","","psychophysics","222","554119","0.0-9.0-0.0-0.0-0.1-0.80","808","","arrowright","","","","","","","","","","","","","key","arrowright","16.667289719626385","720","446","arrowright","true","../../test_img/26.png","自我","matching_task","生人","[""<img src=\""../../test_img/15.png\"" width=150 style=\""vertical-align:middle\"">---自我"",""<img src=\""../../test_img/26.png\"" width=150 style=\""vertical-align:middle\"">---生人"",""<img src=\""../../test_img/22.png\"" width=150 style=\""vertical-align:middle\"">---朋友""]","","",""
"","","","","","html-keyboard-response","223","554620","0.0-9.0-0.0-0.0-0.1-1.80","null","<span style='color:GreenYellow; font-size: 70px;'>正确! </span>","null","","","","","","","","","","","","","","","","","","","","","","","","","feedback_test","",""
"","","","","","psychophysics","224","556248","0.0-9.0-0.0-0.0-0.1-0.81","627","","arrowright","","","","","","","","","","","","","key","arrowright","16.664583333332605","720","446","arrowright","true","../../test_img/15.png","生人","matching_task","自我","[""<img src=\""../../test_img/15.png\"" width=150 style=\""vertical-align:middle\"">---自我"",""<img src=\""../../test_img/26.png\"" width=150 style=\""vertical-align:middle\"">---生人"",""<img src=\""../../test_img/22.png\"" width=150 style=\""vertical-align:middle\"">---朋友""]","","",""
"","","","","","html-keyboard-response","225","556750","0.0-9.0-0.0-0.0-0.1-1.81","null","<span style='color:GreenYellow; font-size: 70px;'>正确! </span>","null","","","","","","","","","","","","","","","","","","","","","","","","","feedback_test","",""
"","","","","","psychophysics","226","558480","0.0-9.0-0.0-0.0-0.1-0.82","728","","arrowleft","","","","","","","","","","","","","key","arrowleft","16.666666666666668","720","446","arrowleft","true","../../test_img/26.png","生人","matching_task","生人","[""<img src=\""../../test_img/15.png\"" width=150 style=\""vertical-align:middle\"">---自我"",""<img src=\""../../test_img/26.png\"" width=150 style=\""vertical-align:middle\"">---生人"",""<img src=\""../../test_img/22.png\"" width=150 style=\""vertical-align:middle\"">---朋友""]","","",""
"","","","","","html-keyboard-response","227","558982","0.0-9.0-0.0-0.0-0.1-1.82","null","<span style='color:GreenYellow; font-size: 70px;'>正确! </span>","null","","","","","","","","","","","","","","","","","","","","","","","","","feedback_test","",""
"","","","","","psychophysics","228","560449","0.0-9.0-0.0-0.0-0.1-0.83","466","","arrowleft","","","","","","","","","","","","","key","arrowleft","16.667441860465388","720","446","arrowleft","true","../../test_img/22.png","朋友","matching_task","朋友","[""<img src=\""../../test_img/15.png\"" width=150 style=\""vertical-align:middle\"">---自我"",""<img src=\""../../test_img/26.png\"" width=150 style=\""vertical-align:middle\"">---生人"",""<img src=\""../../test_img/22.png\"" width=150 style=\""vertical-align:middle\"">---朋友""]","","",""
"","","","","","html-keyboard-response","229","560951","0.0-9.0-0.0-0.0-0.1-1.83","null","<span style='color:GreenYellow; font-size: 70px;'>正确! </span>","null","","","","","","","","","","","","","","","","","","","","","","","","","feedback_test","",""
"","","","","","psychophysics","230","562603","0.0-9.0-0.0-0.0-0.1-0.84","650","","arrowright","","","","","","","","","","","","","key","arrowright","16.667346938775747","720","446","arrowright","true","../../test_img/15.png","生人","matching_task","自我","[""<img src=\""../../test_img/15.png\"" width=150 style=\""vertical-align:middle\"">---自我"",""<img src=\""../../test_img/26.png\"" width=150 style=\""vertical-align:middle\"">---生人"",""<img src=\""../../test_img/22.png\"" width=150 style=\""vertical-align:middle\"">---朋友""]","","",""
"","","","","","html-keyboard-response","231","563105","0.0-9.0-0.0-0.0-0.1-1.84","null","<span style='color:GreenYellow; font-size: 70px;'>正确! </span>","null","","","","","","","","","","","","","","","","","","","","","","","","","feedback_test","",""
"","","","","","psychophysics","232","564736","0.0-9.0-0.0-0.0-0.1-0.85","629","","arrowleft","","","","","","","","","","","","","key","arrowleft","16.66701030927787","720","446","arrowleft","true","../../test_img/26.png","生人","matching_task","生人","[""<img src=\""../../test_img/15.png\"" width=150 style=\""vertical-align:middle\"">---自我"",""<img src=\""../../test_img/26.png\"" width=150 style=\""vertical-align:middle\"">---生人"",""<img src=\""../../test_img/22.png\"" width=150 style=\""vertical-align:middle\"">---朋友""]","","",""
"","","","","","html-keyboard-response","233","565237","0.0-9.0-0.0-0.0-0.1-1.85","null","<span style='color:GreenYellow; font-size: 70px;'>正确! </span>","null","","","","","","","","","","","","","","","","","","","","","","","","","feedback_test","",""
"","","","","","psychophysics","234","566885","0.0-9.0-0.0-0.0-0.1-0.86","645","","arrowleft","","","","","","","","","","","","","key","arrowleft","16.667346938775747","720","446","arrowleft","true","../../test_img/26.png","生人","matching_task","生人","[""<img src=\""../../test_img/15.png\"" width=150 style=\""vertical-align:middle\"">---自我"",""<img src=\""../../test_img/26.png\"" width=150 style=\""vertical-align:middle\"">---生人"",""<img src=\""../../test_img/22.png\"" width=150 style=\""vertical-align:middle\"">---朋友""]","","",""
"","","","","","html-keyboard-response","235","567386","0.0-9.0-0.0-0.0-0.1-1.86","null","<span style='color:GreenYellow; font-size: 70px;'>正确! </span>","null","","","","","","","","","","","","","","","","","","","","","","","","","feedback_test","",""
"","","","","","psychophysics","236","569392","0.0-9.0-0.0-0.0-0.1-0.87","1005","","arrowright","","","","","","","","","","","","","key","arrowright","16.6672268907565","720","446","arrowright","true","../../test_img/22.png","生人","matching_task","朋友","[""<img src=\""../../test_img/15.png\"" width=150 style=\""vertical-align:middle\"">---自我"",""<img src=\""../../test_img/26.png\"" width=150 style=\""vertical-align:middle\"">---生人"",""<img src=\""../../test_img/22.png\"" width=150 style=\""vertical-align:middle\"">---朋友""]","","",""
"","","","","","html-keyboard-response","237","569893","0.0-9.0-0.0-0.0-0.1-1.87","null","<span style='color:GreenYellow; font-size: 70px;'>正确! </span>","null","","","","","","","","","","","","","","","","","","","","","","","","","feedback_test","",""
"","","","","","psychophysics","238","571655","0.0-9.0-0.0-0.0-0.1-0.88","759","","arrowright","","","","","","","","","","","","","key","arrowright","16.66826923076923","720","446","arrowright","true","../../test_img/15.png","朋友","matching_task","自我","[""<img src=\""../../test_img/15.png\"" width=150 style=\""vertical-align:middle\"">---自我"",""<img src=\""../../test_img/26.png\"" width=150 style=\""vertical-align:middle\"">---生人"",""<img src=\""../../test_img/22.png\"" width=150 style=\""vertical-align:middle\"">---朋友""]","","",""
"","","","","","html-keyboard-response","239","572157","0.0-9.0-0.0-0.0-0.1-1.88","null","<span style='color:GreenYellow; font-size: 70px;'>正确! </span>","null","","","","","","","","","","","","","","","","","","","","","","","","","feedback_test","",""
"","","","","","psychophysics","240","573874","0.0-9.0-0.0-0.0-0.1-0.89","715","","arrowright","","","","","","","","","","","","","key","arrowright","16.667647058823302","720","446","arrowright","true","../../test_img/26.png","朋友","matching_task","生人","[""<img src=\""../../test_img/15.png\"" width=150 style=\""vertical-align:middle\"">---自我"",""<img src=\""../../test_img/26.png\"" width=150 style=\""vertical-align:middle\"">---生人"",""<img src=\""../../test_img/22.png\"" width=150 style=\""vertical-align:middle\"">---朋友""]","","",""
"","","","","","html-keyboard-response","241","574375","0.0-9.0-0.0-0.0-0.1-1.89","null","<span style='color:GreenYellow; font-size: 70px;'>正确! </span>","null","","","","","","","","","","","","","","","","","","","","","","","","","feedback_test","",""
"","","","","","psychophysics","242","576089","0.0-9.0-0.0-0.0-0.1-0.90","712","","arrowleft","","","","","","","","","","","","","key","arrowleft","16.667326732672347","720","446","arrowleft","true","../../test_img/15.png","自我","matching_task","自我","[""<img src=\""../../test_img/15.png\"" width=150 style=\""vertical-align:middle\"">---自我"",""<img src=\""../../test_img/26.png\"" width=150 style=\""vertical-align:middle\"">---生人"",""<img src=\""../../test_img/22.png\"" width=150 style=\""vertical-align:middle\"">---朋友""]","","",""
"","","","","","html-keyboard-response","243","576591","0.0-9.0-0.0-0.0-0.1-1.90","null","<span style='color:GreenYellow; font-size: 70px;'>正确! </span>","null","","","","","","","","","","","","","","","","","","","","","","","","","feedback_test","",""
"","","","","","psychophysics","244","578231","0.0-9.0-0.0-0.0-0.1-0.91","638","","arrowleft","","","","","","","","","","","","","key","arrowleft","16.674999999999272","720","446","arrowleft","true","../../test_img/22.png","朋友","matching_task","朋友","[""<img src=\""../../test_img/15.png\"" width=150 style=\""vertical-align:middle\"">---自我"",""<img src=\""../../test_img/26.png\"" width=150 style=\""vertical-align:middle\"">---生人"",""<img src=\""../../test_img/22.png\"" width=150 style=\""vertical-align:middle\"">---朋友""]","","",""
"","","","","","html-keyboard-response","245","578733","0.0-9.0-0.0-0.0-0.1-1.91","null","<span style='color:GreenYellow; font-size: 70px;'>正确! </span>","null","","","","","","","","","","","","","","","","","","","","","","","","","feedback_test","",""
"","","","","","psychophysics","246","580356","0.0-9.0-0.0-0.0-0.1-0.92","623","","arrowright","","","","","","","","","","","","","key","arrowright","16.666666666666668","720","446","arrowright","true","../../test_img/26.png","自我","matching_task","生人","[""<img src=\""../../test_img/15.png\"" width=150 style=\""vertical-align:middle\"">---自我"",""<img src=\""../../test_img/26.png\"" width=150 style=\""vertical-align:middle\"">---生人"",""<img src=\""../../test_img/22.png\"" width=150 style=\""vertical-align:middle\"">---朋友""]","","",""
"","","","","","html-keyboard-response","247","580858","0.0-9.0-0.0-0.0-0.1-1.92","null","<span style='color:GreenYellow; font-size: 70px;'>正确! </span>","null","","","","","","","","","","","","","","","","","","","","","","","","","feedback_test","",""
"","","","","","psychophysics","248","582404","0.0-9.0-0.0-0.0-0.1-0.93","543","","arrowleft","","","","","","","","","","","","","key","arrowleft","16.658241758242013","720","446","arrowleft","true","../../test_img/15.png","自我","matching_task","自我","[""<img src=\""../../test_img/15.png\"" width=150 style=\""vertical-align:middle\"">---自我"",""<img src=\""../../test_img/26.png\"" width=150 style=\""vertical-align:middle\"">---生人"",""<img src=\""../../test_img/22.png\"" width=150 style=\""vertical-align:middle\"">---朋友""]","","",""
"","","","","","html-keyboard-response","249","582905","0.0-9.0-0.0-0.0-0.1-1.93","null","<span style='color:GreenYellow; font-size: 70px;'>正确! </span>","null","","","","","","","","","","","","","","","","","","","","","","","","","feedback_test","",""
"","","","","","psychophysics","250","584533","0.0-9.0-0.0-0.0-0.1-0.94","625","","arrowleft","","","","","","","","","","","","","key","arrowleft","16.65625","720","446","arrowleft","true","../../test_img/22.png","朋友","matching_task","朋友","[""<img src=\""../../test_img/15.png\"" width=150 style=\""vertical-align:middle\"">---自我"",""<img src=\""../../test_img/26.png\"" width=150 style=\""vertical-align:middle\"">---生人"",""<img src=\""../../test_img/22.png\"" width=150 style=\""vertical-align:middle\"">---朋友""]","","",""
"","","","","","html-keyboard-response","251","585034","0.0-9.0-0.0-0.0-0.1-1.94","null","<span style='color:GreenYellow; font-size: 70px;'>正确! </span>","null","","","","","","","","","","","","","","","","","","","","","","","","","feedback_test","",""
"","","","","","psychophysics","252","586767","0.0-9.0-0.0-0.0-0.1-0.95","731","","arrowright","","","","","","","","","","","","","key","arrowright","16.667647058823302","720","446","arrowright","true","../../test_img/22.png","自我","matching_task","朋友","[""<img src=\""../../test_img/15.png\"" width=150 style=\""vertical-align:middle\"">---自我"",""<img src=\""../../test_img/26.png\"" width=150 style=\""vertical-align:middle\"">---生人"",""<img src=\""../../test_img/22.png\"" width=150 style=\""vertical-align:middle\"">---朋友""]","","",""
"","","","","","html-keyboard-response","253","587268","0.0-9.0-0.0-0.0-0.1-1.95","null","<span style='color:GreenYellow; font-size: 70px;'>正确! </span>","null","","","","","","","","","","","","","","","","","","","","","","","","","feedback_test","",""
"","","","","","psychophysics","254","588848","0.0-9.0-0.0-0.0-0.1-0.96","579","","arrowleft","","","","","","","","","","","","","key","arrowleft","16.66774193548362","720","446","arrowleft","true","../../test_img/22.png","朋友","matching_task","朋友","[""<img src=\""../../test_img/15.png\"" width=150 style=\""vertical-align:middle\"">---自我"",""<img src=\""../../test_img/26.png\"" width=150 style=\""vertical-align:middle\"">---生人"",""<img src=\""../../test_img/22.png\"" width=150 style=\""vertical-align:middle\"">---朋友""]","","",""
"","","","","","html-keyboard-response","255","589350","0.0-9.0-0.0-0.0-0.1-1.96","null","<span style='color:GreenYellow; font-size: 70px;'>正确! </span>","null","","","","","","","","","","","","","","","","","","","","","","","","","feedback_test","",""
