"success","timeout","failed_images","failed_audio","failed_video","trial_type","trial_index","time_elapsed","internal_node_id","rt","stimulus","response","value","item_width_mm","item_height_mm","item_width_px","px2mm","view_dist_mm","item_width_deg","px2deg","scale_factor","win_width_deg","win_height_deg","view_history","response_type","key_press","avg_frame_time","center_x","center_y","correct_response","correct","Image","word","condition","shape","association","screen_id","LeftLable","RightLable"
"true","false","[]","[]","[]","preload","0","637","0.0-0.0","","","","","","","","","","","","","","","","","","","","","","","","","","","","","",""
"","","","","","html-keyboard-response","1","498978","0.0-1.0","498340","
     <p>您好，欢迎参加本次实验。</p>
     <p>为充分保障您的权利，请确保您已经知晓并同意《参与实验同意书》以及《数据公开知情同意书》。</p>
     <p>如果您未见过上述内容，请咨询实验员。</p>
     <p>如果您选择继续实验，则表示您已经清楚两份知情同意书的内容并同意。</p>
     <p> <div style = ""color: green""><按任意键至下页></div> </p>
     ","f3","","","","","","","","","","","","","","","","","","","","","","","","","","",""
"","","","","","html-keyboard-response","2","504241","0.0-2.0","5262","
     <p>本实验首先需要您填写一些基本个人信息。</p>
     <p> <div style = ""color: green""><按任意键至下页></div></p>
     ","unidentified","","","","","","","","","","","","","","","","","","","","","","","","","","",""
"","","","","","call-function","3","504241","0.0-3.0-0.0","","","","","","","","","","","","","","","","","","","","","","","","","","","","","",""
"","","","","","survey-html-form","4","513332","0.0-3.0-1.0","9090","","{""Q0"":""06""}","","","","","","","","","","","","","","","","","","","","","","","","","","",""
"","","","","","html-button-response","5","515366","0.0-3.0-2.0","2031","<p style = 'color : white'>您的性别</p>","1","","","","","","","","","","","","","","","","","","","","","","","","","","",""
"","","","","","survey-html-form","6","521094","0.0-3.0-3.0","5728","","{""Q0"":""2001""}","","","","","","","","","","","","","","","","","","","","","","","","","","",""
"","","","","","survey-html-form","7","525025","0.0-3.0-4.0","3929","","{""Q0"":""6""}","","","","","","","","","","","","","","","","","","","","","","","","","","",""
"","","","","","virtual-chinrest","8","594645","0.0-4.0","69618","","","","85.6","53.98","427.1900656184866","4.9873403291867","572.98","8.543801312369732","50","0.9644419034031272","33.98","16","","","","","","","","","","","","","","","",""
"true","","","","","fullscreen","9","599843","0.0-5.0","","","","","","","","","","","","","","","","","","","","","","","","","","","","","",""
"","","","","","instructions","10","705002","0.0-6.0","105158","","","","","","","","","","","","","","[{""page_index"":0,""viewing_time"":20862},{""page_index"":1,""viewing_time"":20764},{""page_index"":2,""viewing_time"":29844},{""page_index"":3,""viewing_time"":7781},{""page_index"":2,""viewing_time"":1835},{""page_index"":3,""viewing_time"":2025},{""page_index"":4,""viewing_time"":22047}]","","","","","","","","","","","","","","",""
"","","","","","psychophysics","11","706975","0.0-7.0-0.0-0.0","969","","arrowleft","","","","","","","","","","","","","key","arrowleft","4.166239316239167","853.3333333333334","476","arrowleft","true","../../test_img/12.png","自我","prac_matching_task","自我","[""<img src=\""../../test_img/12.png\"" width=150 style=\""vertical-align:middle\"">---自我"",""<img src=\""../../test_img/25.png\"" width=150 style=\""vertical-align:middle\"">---生人"",""<img src=\""../../test_img/19.png\"" width=150 style=\""vertical-align:middle\"">---朋友""]","","",""
"","","","","","html-keyboard-response","12","707282","0.0-7.0-0.0-1.0","null","<span style='color:GreenYellow; font-size: 70px;'>正确! </span>","null","","","","","","","","","","","","","","","","","","","","","","","","","feedback_test","",""
"","","","","","psychophysics","13","709321","0.0-7.0-0.0-0.1","1036","","arrowright","","","","","","","","","","","","","key","arrowright","4.166115702479146","853.3333333333334","476","arrowright","true","../../test_img/19.png","生人","prac_matching_task","朋友","[""<img src=\""../../test_img/12.png\"" width=150 style=\""vertical-align:middle\"">---自我"",""<img src=\""../../test_img/25.png\"" width=150 style=\""vertical-align:middle\"">---生人"",""<img src=\""../../test_img/19.png\"" width=150 style=\""vertical-align:middle\"">---朋友""]","","",""
"","","","","","html-keyboard-response","14","709622","0.0-7.0-0.0-1.1","null","<span style='color:GreenYellow; font-size: 70px;'>正确! </span>","null","","","","","","","","","","","","","","","","","","","","","","","","","feedback_test","",""
"","","","","","psychophysics","15","711356","0.0-7.0-0.0-0.2","729","","arrowleft","","","","","","","","","","","","","key","arrowleft","4.165936739659254","853.3333333333334","476","arrowleft","true","../../test_img/19.png","朋友","prac_matching_task","朋友","[""<img src=\""../../test_img/12.png\"" width=150 style=\""vertical-align:middle\"">---自我"",""<img src=\""../../test_img/25.png\"" width=150 style=\""vertical-align:middle\"">---生人"",""<img src=\""../../test_img/19.png\"" width=150 style=\""vertical-align:middle\"">---朋友""]","","",""
"","","","","","html-keyboard-response","16","711658","0.0-7.0-0.0-1.2","null","<span style='color:GreenYellow; font-size: 70px;'>正确! </span>","null","","","","","","","","","","","","","","","","","","","","","","","","","feedback_test","",""
"","","","","","psychophysics","17","713312","0.0-7.0-0.0-0.3","648","","arrowleft","","","","","","","","","","","","","key","arrowleft","4.166326530612423","853.3333333333334","476","arrowleft","true","../../test_img/12.png","自我","prac_matching_task","自我","[""<img src=\""../../test_img/12.png\"" width=150 style=\""vertical-align:middle\"">---自我"",""<img src=\""../../test_img/25.png\"" width=150 style=\""vertical-align:middle\"">---生人"",""<img src=\""../../test_img/19.png\"" width=150 style=\""vertical-align:middle\"">---朋友""]","","",""
"","","","","","html-keyboard-response","18","713615","0.0-7.0-0.0-1.3","null","<span style='color:GreenYellow; font-size: 70px;'>正确! </span>","null","","","","","","","","","","","","","","","","","","","","","","","","","feedback_test","",""
"","","","","","psychophysics","19","715345","0.0-7.0-0.0-0.4","724","","arrowleft","","","","","","","","","","","","","key","arrowleft","4.166341463414804","853.3333333333334","476","arrowleft","true","../../test_img/19.png","朋友","prac_matching_task","朋友","[""<img src=\""../../test_img/12.png\"" width=150 style=\""vertical-align:middle\"">---自我"",""<img src=\""../../test_img/25.png\"" width=150 style=\""vertical-align:middle\"">---生人"",""<img src=\""../../test_img/19.png\"" width=150 style=\""vertical-align:middle\"">---朋友""]","","",""
"","","","","","html-keyboard-response","20","715649","0.0-7.0-0.0-1.4","null","<span style='color:GreenYellow; font-size: 70px;'>正确! </span>","null","","","","","","","","","","","","","","","","","","","","","","","","","feedback_test","",""
"","","","","","psychophysics","21","717655","0.0-7.0-0.0-0.5","1000","","arrowright","","","","","","","","","","","","","key","arrowright","4.166176470588186","853.3333333333334","476","arrowright","true","../../test_img/25.png","自我","prac_matching_task","生人","[""<img src=\""../../test_img/12.png\"" width=150 style=\""vertical-align:middle\"">---自我"",""<img src=\""../../test_img/25.png\"" width=150 style=\""vertical-align:middle\"">---生人"",""<img src=\""../../test_img/19.png\"" width=150 style=\""vertical-align:middle\"">---朋友""]","","",""
"","","","","","html-keyboard-response","22","717966","0.0-7.0-0.0-1.5","null","<span style='color:GreenYellow; font-size: 70px;'>正确! </span>","null","","","","","","","","","","","","","","","","","","","","","","","","","feedback_test","",""
"","","","","","psychophysics","23","720076","0.0-7.0-0.0-0.6","1105","","arrowright","","","","","","","","","","","","","key","arrowright","4.166733067729223","853.3333333333334","476","arrowright","true","../../test_img/12.png","朋友","prac_matching_task","自我","[""<img src=\""../../test_img/12.png\"" width=150 style=\""vertical-align:middle\"">---自我"",""<img src=\""../../test_img/25.png\"" width=150 style=\""vertical-align:middle\"">---生人"",""<img src=\""../../test_img/19.png\"" width=150 style=\""vertical-align:middle\"">---朋友""]","","",""
"","","","","","html-keyboard-response","24","720387","0.0-7.0-0.0-1.6","null","<span style='color:GreenYellow; font-size: 70px;'>正确! </span>","null","","","","","","","","","","","","","","","","","","","","","","","","","feedback_test","",""
"","","","","","psychophysics","25","722577","0.0-7.0-0.0-0.7","1185","","arrowright","","","","","","","","","","","","","key","arrowright","4.165834932821318","853.3333333333334","476","arrowright","true","../../test_img/25.png","朋友","prac_matching_task","生人","[""<img src=\""../../test_img/12.png\"" width=150 style=\""vertical-align:middle\"">---自我"",""<img src=\""../../test_img/25.png\"" width=150 style=\""vertical-align:middle\"">---生人"",""<img src=\""../../test_img/19.png\"" width=150 style=\""vertical-align:middle\"">---朋友""]","","",""
"","","","","","html-keyboard-response","26","722878","0.0-7.0-0.0-1.7","null","<span style='color:GreenYellow; font-size: 70px;'>正确! </span>","null","","","","","","","","","","","","","","","","","","","","","","","","","feedback_test","",""
"","","","","","psychophysics","27","724627","0.0-7.0-0.0-0.8","747","","arrowleft","","","","","","","","","","","","","key","arrowleft","4.166024096385598","853.3333333333334","476","arrowleft","true","../../test_img/25.png","生人","prac_matching_task","生人","[""<img src=\""../../test_img/12.png\"" width=150 style=\""vertical-align:middle\"">---自我"",""<img src=\""../../test_img/25.png\"" width=150 style=\""vertical-align:middle\"">---生人"",""<img src=\""../../test_img/19.png\"" width=150 style=\""vertical-align:middle\"">---朋友""]","","",""
"","","","","","html-keyboard-response","28","724934","0.0-7.0-0.0-1.8","null","<span style='color:GreenYellow; font-size: 70px;'>正确! </span>","null","","","","","","","","","","","","","","","","","","","","","","","","","feedback_test","",""
"","","","","","psychophysics","29","727170","0.0-7.0-0.0-0.9","1233","","arrowright","","","","","","","","","","","","","key","arrowright","4.166353383458647","853.3333333333334","476","arrowright","true","../../test_img/19.png","自我","prac_matching_task","朋友","[""<img src=\""../../test_img/12.png\"" width=150 style=\""vertical-align:middle\"">---自我"",""<img src=\""../../test_img/25.png\"" width=150 style=\""vertical-align:middle\"">---生人"",""<img src=\""../../test_img/19.png\"" width=150 style=\""vertical-align:middle\"">---朋友""]","","",""
"","","","","","html-keyboard-response","30","727478","0.0-7.0-0.0-1.9","null","<span style='color:GreenYellow; font-size: 70px;'>正确! </span>","null","","","","","","","","","","","","","","","","","","","","","","","","","feedback_test","",""
"","","","","","psychophysics","31","729281","0.0-7.0-0.0-0.10","798","","arrowleft","","","","","","","","","","","","","key","arrowleft","4.166355140186807","853.3333333333334","476","arrowleft","true","../../test_img/25.png","生人","prac_matching_task","生人","[""<img src=\""../../test_img/12.png\"" width=150 style=\""vertical-align:middle\"">---自我"",""<img src=\""../../test_img/25.png\"" width=150 style=\""vertical-align:middle\"">---生人"",""<img src=\""../../test_img/19.png\"" width=150 style=\""vertical-align:middle\"">---朋友""]","","",""
"","","","","","html-keyboard-response","32","729589","0.0-7.0-0.0-1.10","null","<span style='color:GreenYellow; font-size: 70px;'>正确! </span>","null","","","","","","","","","","","","","","","","","","","","","","","","","feedback_test","",""
"","","","","","psychophysics","33","731512","0.0-7.0-0.0-0.11","917","","arrowright","","","","","","","","","","","","","key","arrowright","4.166008771929977","853.3333333333334","476","arrowright","true","../../test_img/12.png","生人","prac_matching_task","自我","[""<img src=\""../../test_img/12.png\"" width=150 style=\""vertical-align:middle\"">---自我"",""<img src=\""../../test_img/25.png\"" width=150 style=\""vertical-align:middle\"">---生人"",""<img src=\""../../test_img/19.png\"" width=150 style=\""vertical-align:middle\"">---朋友""]","","",""
"","","","","","html-keyboard-response","34","731813","0.0-7.0-0.0-1.11","null","<span style='color:GreenYellow; font-size: 70px;'>正确! </span>","null","","","","","","","","","","","","","","","","","","","","","","","","","feedback_test","",""
"","","","","","psychophysics","35","733606","0.0-7.0-0.0-0.12","790","","arrowright","","","","","","","","","","","","","key","arrowright","4.165411764705992","853.3333333333334","476","arrowright","true","../../test_img/25.png","自我","prac_matching_task","生人","[""<img src=\""../../test_img/12.png\"" width=150 style=\""vertical-align:middle\"">---自我"",""<img src=\""../../test_img/25.png\"" width=150 style=\""vertical-align:middle\"">---生人"",""<img src=\""../../test_img/19.png\"" width=150 style=\""vertical-align:middle\"">---朋友""]","","",""
"","","","","","html-keyboard-response","36","733915","0.0-7.0-0.0-1.12","null","<span style='color:GreenYellow; font-size: 70px;'>正确! </span>","null","","","","","","","","","","","","","","","","","","","","","","","","","feedback_test","",""
"","","","","","psychophysics","37","735724","0.0-7.0-0.0-0.13","804","","arrowleft","","","","","","","","","","","","","key","arrowleft","4.166200466200575","853.3333333333334","476","arrowleft","true","../../test_img/19.png","朋友","prac_matching_task","朋友","[""<img src=\""../../test_img/12.png\"" width=150 style=\""vertical-align:middle\"">---自我"",""<img src=\""../../test_img/25.png\"" width=150 style=\""vertical-align:middle\"">---生人"",""<img src=\""../../test_img/19.png\"" width=150 style=\""vertical-align:middle\"">---朋友""]","","",""
"","","","","","html-keyboard-response","38","736040","0.0-7.0-0.0-1.13","null","<span style='color:GreenYellow; font-size: 70px;'>正确! </span>","null","","","","","","","","","","","","","","","","","","","","","","","","","feedback_test","",""
"","","","","","psychophysics","39","737899","0.0-7.0-0.0-0.14","855","","arrowright","","","","","","","","","","","","","key","arrowright","4.166063348416342","853.3333333333334","476","arrowright","true","../../test_img/19.png","自我","prac_matching_task","朋友","[""<img src=\""../../test_img/12.png\"" width=150 style=\""vertical-align:middle\"">---自我"",""<img src=\""../../test_img/25.png\"" width=150 style=\""vertical-align:middle\"">---生人"",""<img src=\""../../test_img/19.png\"" width=150 style=\""vertical-align:middle\"">---朋友""]","","",""
"","","","","","html-keyboard-response","40","738203","0.0-7.0-0.0-1.14","null","<span style='color:GreenYellow; font-size: 70px;'>正确! </span>","null","","","","","","","","","","","","","","","","","","","","","","","","","feedback_test","",""
"","","","","","psychophysics","41","740118","0.0-7.0-0.0-0.15","912","","arrowright","","","","","","","","","","","","","key","arrowright","4.165494505494352","853.3333333333334","476","arrowleft","false","../../test_img/19.png","朋友","prac_matching_task","朋友","[""<img src=\""../../test_img/12.png\"" width=150 style=\""vertical-align:middle\"">---自我"",""<img src=\""../../test_img/25.png\"" width=150 style=\""vertical-align:middle\"">---生人"",""<img src=\""../../test_img/19.png\"" width=150 style=\""vertical-align:middle\"">---朋友""]","","",""
"","","","","","html-keyboard-response","42","740422","0.0-7.0-0.0-1.15","null","<span style='color:red; font-size: 70px;'>错误! </span>","null","","","","","","","","","","","","","","","","","","","","","","","","","feedback_test","",""
"","","","","","psychophysics","43","742668","0.0-7.0-0.0-0.16","1241","","arrowright","","","","","","","","","","","","","key","arrowright","4.166104868913989","853.3333333333334","476","arrowright","true","../../test_img/25.png","朋友","prac_matching_task","生人","[""<img src=\""../../test_img/12.png\"" width=150 style=\""vertical-align:middle\"">---自我"",""<img src=\""../../test_img/25.png\"" width=150 style=\""vertical-align:middle\"">---生人"",""<img src=\""../../test_img/19.png\"" width=150 style=\""vertical-align:middle\"">---朋友""]","","",""
"","","","","","html-keyboard-response","44","742969","0.0-7.0-0.0-1.16","null","<span style='color:GreenYellow; font-size: 70px;'>正确! </span>","null","","","","","","","","","","","","","","","","","","","","","","","","","feedback_test","",""
"","","","","","psychophysics","45","745012","0.0-7.0-0.0-0.17","1040","","arrowleft","","","","","","","","","","","","","key","arrowleft","4.166255144033018","853.3333333333334","476","arrowleft","true","../../test_img/25.png","生人","prac_matching_task","生人","[""<img src=\""../../test_img/12.png\"" width=150 style=\""vertical-align:middle\"">---自我"",""<img src=\""../../test_img/25.png\"" width=150 style=\""vertical-align:middle\"">---生人"",""<img src=\""../../test_img/19.png\"" width=150 style=\""vertical-align:middle\"">---朋友""]","","",""
"","","","","","html-keyboard-response","46","745328","0.0-7.0-0.0-1.17","null","<span style='color:GreenYellow; font-size: 70px;'>正确! </span>","null","","","","","","","","","","","","","","","","","","","","","","","","","feedback_test","",""
"","","","","","psychophysics","47","747178","0.0-7.0-0.0-0.18","844","","arrowleft","","","","","","","","","","","","","key","arrowleft","4.165831435079568","853.3333333333334","476","arrowright","false","../../test_img/12.png","朋友","prac_matching_task","自我","[""<img src=\""../../test_img/12.png\"" width=150 style=\""vertical-align:middle\"">---自我"",""<img src=\""../../test_img/25.png\"" width=150 style=\""vertical-align:middle\"">---生人"",""<img src=\""../../test_img/19.png\"" width=150 style=\""vertical-align:middle\"">---朋友""]","","",""
"","","","","","html-keyboard-response","48","747480","0.0-7.0-0.0-1.18","null","<span style='color:red; font-size: 70px;'>错误! </span>","null","","","","","","","","","","","","","","","","","","","","","","","","","feedback_test","",""
"","","","","","psychophysics","49","749201","0.0-7.0-0.0-0.19","718","","arrowleft","","","","","","","","","","","","","key","arrowleft","4.166259168704157","853.3333333333334","476","arrowleft","true","../../test_img/12.png","自我","prac_matching_task","自我","[""<img src=\""../../test_img/12.png\"" width=150 style=\""vertical-align:middle\"">---自我"",""<img src=\""../../test_img/25.png\"" width=150 style=\""vertical-align:middle\"">---生人"",""<img src=\""../../test_img/19.png\"" width=150 style=\""vertical-align:middle\"">---朋友""]","","",""
"","","","","","html-keyboard-response","50","749510","0.0-7.0-0.0-1.19","null","<span style='color:GreenYellow; font-size: 70px;'>正确! </span>","null","","","","","","","","","","","","","","","","","","","","","","","","","feedback_test","",""
"","","","","","psychophysics","51","751245","0.0-7.0-0.0-0.20","731","","arrowleft","","","","","","","","","","","","","key","arrowleft","4.165693430656877","853.3333333333334","476","arrowleft","true","../../test_img/25.png","生人","prac_matching_task","生人","[""<img src=\""../../test_img/12.png\"" width=150 style=\""vertical-align:middle\"">---自我"",""<img src=\""../../test_img/25.png\"" width=150 style=\""vertical-align:middle\"">---生人"",""<img src=\""../../test_img/19.png\"" width=150 style=\""vertical-align:middle\"">---朋友""]","","",""
"","","","","","html-keyboard-response","52","751555","0.0-7.0-0.0-1.20","null","<span style='color:GreenYellow; font-size: 70px;'>正确! </span>","null","","","","","","","","","","","","","","","","","","","","","","","","","feedback_test","",""
"","","","","","psychophysics","53","753411","0.0-7.0-0.0-0.21","852","","arrowleft","","","","","","","","","","","","","key","arrowleft","4.166439909297105","853.3333333333334","476","arrowleft","true","../../test_img/12.png","自我","prac_matching_task","自我","[""<img src=\""../../test_img/12.png\"" width=150 style=\""vertical-align:middle\"">---自我"",""<img src=\""../../test_img/25.png\"" width=150 style=\""vertical-align:middle\"">---生人"",""<img src=\""../../test_img/19.png\"" width=150 style=\""vertical-align:middle\"">---朋友""]","","",""
"","","","","","html-keyboard-response","54","753716","0.0-7.0-0.0-1.21","null","<span style='color:GreenYellow; font-size: 70px;'>正确! </span>","null","","","","","","","","","","","","","","","","","","","","","","","","","feedback_test","",""
"","","","","","psychophysics","55","755695","0.0-7.0-0.0-0.22","974","","arrowright","","","","","","","","","","","","","key","arrowright","4.166170212765908","853.3333333333334","476","arrowright","true","../../test_img/19.png","生人","prac_matching_task","朋友","[""<img src=\""../../test_img/12.png\"" width=150 style=\""vertical-align:middle\"">---自我"",""<img src=\""../../test_img/25.png\"" width=150 style=\""vertical-align:middle\"">---生人"",""<img src=\""../../test_img/19.png\"" width=150 style=\""vertical-align:middle\"">---朋友""]","","",""
"","","","","","html-keyboard-response","56","755997","0.0-7.0-0.0-1.22","null","<span style='color:GreenYellow; font-size: 70px;'>正确! </span>","null","","","","","","","","","","","","","","","","","","","","","","","","","feedback_test","",""
"","","","","","psychophysics","57","757899","0.0-7.0-0.0-0.23","899","","arrowright","","","","","","","","","","","","","key","arrowright","4.166155210643245","853.3333333333334","476","arrowright","true","../../test_img/12.png","生人","prac_matching_task","自我","[""<img src=\""../../test_img/12.png\"" width=150 style=\""vertical-align:middle\"">---自我"",""<img src=\""../../test_img/25.png\"" width=150 style=\""vertical-align:middle\"">---生人"",""<img src=\""../../test_img/19.png\"" width=150 style=\""vertical-align:middle\"">---朋友""]","","",""
"","","","","","html-keyboard-response","58","758209","0.0-7.0-0.0-1.23","null","<span style='color:GreenYellow; font-size: 70px;'>正确! </span>","null","","","","","","","","","","","","","","","","","","","","","","","","","feedback_test","",""
"","","","","","html-keyboard-response","59","766429","0.0-8.0","8216","<style>.context{color:white; font-size: 35px; line-height:40px}</style>                          <div><p class='context'>您正确回答了92% 的试次。</p ><p class='context'>您的平均反应时为909毫秒。</p ><p class='context'>恭喜您完成练习。按任意键进入知觉匹配任务正式实验。</p ><p style = 'color:lightgreen; font-size: 35px;' >正式实验与练习要求相同，请您尽可能又快又准地进行按键反应</p><p class='footer' style='font-size: 22px; line-height:40px;'>请将您右手的<span style='color: lightgreen;'>食指与无名指</span>放在电脑键盘的相应键位上进行按键。</p >"," ","","","","","","","","","","","","","","","","","","","","","","","","","","",""
"","","","","","psychophysics","60","767956","0.0-9.0-0.0-0.0-0.0-0.0","525","","arrowleft","","","","","","","","","","","","","key","arrowleft","4.166574585635487","853.3333333333334","476","arrowleft","true","../../test_img/12.png","自我","matching_task","自我","[""<img src=\""../../test_img/12.png\"" width=150 style=\""vertical-align:middle\"">---自我"",""<img src=\""../../test_img/25.png\"" width=150 style=\""vertical-align:middle\"">---生人"",""<img src=\""../../test_img/19.png\"" width=150 style=\""vertical-align:middle\"">---朋友""]","","",""
"","","","","","html-keyboard-response","61","768465","0.0-9.0-0.0-0.0-0.0-1.0","null","<span style='color:GreenYellow; font-size: 70px;'>正确! </span>","null","","","","","","","","","","","","","","","","","","","","","","","","","feedback_test","",""
"","","","","","psychophysics","62","770222","0.0-9.0-0.0-0.0-0.0-0.1","753","","arrowright","","","","","","","","","","","","","key","arrowright","4.166187050359545","853.3333333333334","476","arrowright","true","../../test_img/25.png","朋友","matching_task","生人","[""<img src=\""../../test_img/12.png\"" width=150 style=\""vertical-align:middle\"">---自我"",""<img src=\""../../test_img/25.png\"" width=150 style=\""vertical-align:middle\"">---生人"",""<img src=\""../../test_img/19.png\"" width=150 style=\""vertical-align:middle\"">---朋友""]","","",""
"","","","","","html-keyboard-response","63","770726","0.0-9.0-0.0-0.0-0.0-1.1","null","<span style='color:GreenYellow; font-size: 70px;'>正确! </span>","null","","","","","","","","","","","","","","","","","","","","","","","","","feedback_test","",""
"","","","","","psychophysics","64","772542","0.0-9.0-0.0-0.0-0.0-0.2","811","","arrowleft","","","","","","","","","","","","","key","arrowleft","4.166125290023148","853.3333333333334","476","arrowleft","true","../../test_img/19.png","朋友","matching_task","朋友","[""<img src=\""../../test_img/12.png\"" width=150 style=\""vertical-align:middle\"">---自我"",""<img src=\""../../test_img/25.png\"" width=150 style=\""vertical-align:middle\"">---生人"",""<img src=\""../../test_img/19.png\"" width=150 style=\""vertical-align:middle\"">---朋友""]","","",""
"","","","","","html-keyboard-response","65","773053","0.0-9.0-0.0-0.0-0.0-1.2","null","<span style='color:GreenYellow; font-size: 70px;'>正确! </span>","null","","","","","","","","","","","","","","","","","","","","","","","","","feedback_test","",""
"","","","","","psychophysics","66","774788","0.0-9.0-0.0-0.0-0.0-0.3","732","","arrowright","","","","","","","","","","","","","key","arrowright","4.166666666666667","853.3333333333334","476","arrowright","true","../../test_img/12.png","朋友","matching_task","自我","[""<img src=\""../../test_img/12.png\"" width=150 style=\""vertical-align:middle\"">---自我"",""<img src=\""../../test_img/25.png\"" width=150 style=\""vertical-align:middle\"">---生人"",""<img src=\""../../test_img/19.png\"" width=150 style=\""vertical-align:middle\"">---朋友""]","","",""
"","","","","","html-keyboard-response","67","775292","0.0-9.0-0.0-0.0-0.0-1.3","null","<span style='color:GreenYellow; font-size: 70px;'>正确! </span>","null","","","","","","","","","","","","","","","","","","","","","","","","","feedback_test","",""
"","","","","","psychophysics","68","776990","0.0-9.0-0.0-0.0-0.0-0.4","694","","arrowleft","","","","","","","","","","","","","key","arrowleft","4.166253101736973","853.3333333333334","476","arrowleft","true","../../test_img/25.png","生人","matching_task","生人","[""<img src=\""../../test_img/12.png\"" width=150 style=\""vertical-align:middle\"">---自我"",""<img src=\""../../test_img/25.png\"" width=150 style=\""vertical-align:middle\"">---生人"",""<img src=\""../../test_img/19.png\"" width=150 style=\""vertical-align:middle\"">---朋友""]","","",""
"","","","","","html-keyboard-response","69","777492","0.0-9.0-0.0-0.0-0.0-1.4","null","<span style='color:GreenYellow; font-size: 70px;'>正确! </span>","null","","","","","","","","","","","","","","","","","","","","","","","","","feedback_test","",""
"","","","","","psychophysics","70","779037","0.0-9.0-0.0-0.0-0.0-0.5","540","","arrowleft","","","","","","","","","","","","","key","arrowleft","4.166120218579044","853.3333333333334","476","arrowleft","true","../../test_img/25.png","生人","matching_task","生人","[""<img src=\""../../test_img/12.png\"" width=150 style=\""vertical-align:middle\"">---自我"",""<img src=\""../../test_img/25.png\"" width=150 style=\""vertical-align:middle\"">---生人"",""<img src=\""../../test_img/19.png\"" width=150 style=\""vertical-align:middle\"">---朋友""]","","",""
"","","","","","html-keyboard-response","71","779542","0.0-9.0-0.0-0.0-0.0-1.5","null","<span style='color:GreenYellow; font-size: 70px;'>正确! </span>","null","","","","","","","","","","","","","","","","","","","","","","","","","feedback_test","",""
"","","","","","psychophysics","72","781302","0.0-9.0-0.0-0.0-0.0-0.6","756","","arrowleft","","","","","","","","","","","","","key","arrowleft","4.166028708134027","853.3333333333334","476","arrowleft","true","../../test_img/19.png","朋友","matching_task","朋友","[""<img src=\""../../test_img/12.png\"" width=150 style=\""vertical-align:middle\"">---自我"",""<img src=\""../../test_img/25.png\"" width=150 style=\""vertical-align:middle\"">---生人"",""<img src=\""../../test_img/19.png\"" width=150 style=\""vertical-align:middle\"">---朋友""]","","",""
"","","","","","html-keyboard-response","73","781807","0.0-9.0-0.0-0.0-0.0-1.6","null","<span style='color:GreenYellow; font-size: 70px;'>正确! </span>","null","","","","","","","","","","","","","","","","","","","","","","","","","feedback_test","",""
"","","","","","psychophysics","74","783435","0.0-9.0-0.0-0.0-0.0-0.7","622","","arrowleft","","","","","","","","","","","","","key","arrowleft","4.16580310880829","853.3333333333334","476","arrowleft","true","../../test_img/12.png","自我","matching_task","自我","[""<img src=\""../../test_img/12.png\"" width=150 style=\""vertical-align:middle\"">---自我"",""<img src=\""../../test_img/25.png\"" width=150 style=\""vertical-align:middle\"">---生人"",""<img src=\""../../test_img/19.png\"" width=150 style=\""vertical-align:middle\"">---朋友""]","","",""
"","","","","","html-keyboard-response","75","783949","0.0-9.0-0.0-0.0-0.0-1.7","null","<span style='color:GreenYellow; font-size: 70px;'>正确! </span>","null","","","","","","","","","","","","","","","","","","","","","","","","","feedback_test","",""
"","","","","","psychophysics","76","785911","0.0-9.0-0.0-0.0-0.0-0.8","957","","arrowright","","","","","","","","","","","","","key","arrowright","4.16587982832628","853.3333333333334","476","arrowright","true","../../test_img/19.png","生人","matching_task","朋友","[""<img src=\""../../test_img/12.png\"" width=150 style=\""vertical-align:middle\"">---自我"",""<img src=\""../../test_img/25.png\"" width=150 style=\""vertical-align:middle\"">---生人"",""<img src=\""../../test_img/19.png\"" width=150 style=\""vertical-align:middle\"">---朋友""]","","",""
"","","","","","html-keyboard-response","77","786415","0.0-9.0-0.0-0.0-0.0-1.8","null","<span style='color:GreenYellow; font-size: 70px;'>正确! </span>","null","","","","","","","","","","","","","","","","","","","","","","","","","feedback_test","",""
"","","","","","psychophysics","78","788279","0.0-9.0-0.0-0.0-0.0-0.9","858","","arrowright","","","","","","","","","","","","","key","arrowright","4.166289592760181","853.3333333333334","476","arrowright","true","../../test_img/19.png","自我","matching_task","朋友","[""<img src=\""../../test_img/12.png\"" width=150 style=\""vertical-align:middle\"">---自我"",""<img src=\""../../test_img/25.png\"" width=150 style=\""vertical-align:middle\"">---生人"",""<img src=\""../../test_img/19.png\"" width=150 style=\""vertical-align:middle\"">---朋友""]","","",""
"","","","","","html-keyboard-response","79","788793","0.0-9.0-0.0-0.0-0.0-1.9","null","<span style='color:GreenYellow; font-size: 70px;'>正确! </span>","null","","","","","","","","","","","","","","","","","","","","","","","","","feedback_test","",""
"","","","","","psychophysics","80","790489","0.0-9.0-0.0-0.0-0.0-0.10","689","","arrowright","","","","","","","","","","","","","key","arrowright","4.195","853.3333333333334","476","arrowright","true","../../test_img/12.png","生人","matching_task","自我","[""<img src=\""../../test_img/12.png\"" width=150 style=\""vertical-align:middle\"">---自我"",""<img src=\""../../test_img/25.png\"" width=150 style=\""vertical-align:middle\"">---生人"",""<img src=\""../../test_img/19.png\"" width=150 style=\""vertical-align:middle\"">---朋友""]","","",""
"","","","","","html-keyboard-response","81","790993","0.0-9.0-0.0-0.0-0.0-1.10","null","<span style='color:GreenYellow; font-size: 70px;'>正确! </span>","null","","","","","","","","","","","","","","","","","","","","","","","","","feedback_test","",""
"","","","","","psychophysics","82","792731","0.0-9.0-0.0-0.0-0.0-0.11","732","","arrowright","","","","","","","","","","","","","key","arrowright","4.166019417475785","853.3333333333334","476","arrowright","true","../../test_img/25.png","自我","matching_task","生人","[""<img src=\""../../test_img/12.png\"" width=150 style=\""vertical-align:middle\"">---自我"",""<img src=\""../../test_img/25.png\"" width=150 style=\""vertical-align:middle\"">---生人"",""<img src=\""../../test_img/19.png\"" width=150 style=\""vertical-align:middle\"">---朋友""]","","",""
"","","","","","html-keyboard-response","83","793242","0.0-9.0-0.0-0.0-0.0-1.11","null","<span style='color:GreenYellow; font-size: 70px;'>正确! </span>","null","","","","","","","","","","","","","","","","","","","","","","","","","feedback_test","",""
"","","","","","psychophysics","84","795132","0.0-9.0-0.0-0.0-0.0-0.12","886","","arrowleft","","","","","","","","","","","","","key","arrowleft","4.166146993318434","853.3333333333334","476","arrowleft","true","../../test_img/19.png","朋友","matching_task","朋友","[""<img src=\""../../test_img/12.png\"" width=150 style=\""vertical-align:middle\"">---自我"",""<img src=\""../../test_img/25.png\"" width=150 style=\""vertical-align:middle\"">---生人"",""<img src=\""../../test_img/19.png\"" width=150 style=\""vertical-align:middle\"">---朋友""]","","",""
"","","","","","html-keyboard-response","85","795638","0.0-9.0-0.0-0.0-0.0-1.12","null","<span style='color:GreenYellow; font-size: 70px;'>正确! </span>","null","","","","","","","","","","","","","","","","","","","","","","","","","feedback_test","",""
"","","","","","psychophysics","86","797356","0.0-9.0-0.0-0.0-0.0-0.13","711","","arrowleft","","","","","","","","","","","","","key","arrowleft","4.165794117646988","853.3333333333334","476","arrowleft","true","../../test_img/25.png","生人","matching_task","生人","[""<img src=\""../../test_img/12.png\"" width=150 style=\""vertical-align:middle\"">---自我"",""<img src=\""../../test_img/25.png\"" width=150 style=\""vertical-align:middle\"">---生人"",""<img src=\""../../test_img/19.png\"" width=150 style=\""vertical-align:middle\"">---朋友""]","","",""
"","","","","","html-keyboard-response","87","797860","0.0-9.0-0.0-0.0-0.0-1.13","null","<span style='color:GreenYellow; font-size: 70px;'>正确! </span>","null","","","","","","","","","","","","","","","","","","","","","","","","","feedback_test","",""
"","","","","","psychophysics","88","799606","0.0-9.0-0.0-0.0-0.0-0.14","741","","arrowright","","","","","","","","","","","","","key","arrowright","4.166425120773003","853.3333333333334","476","arrowright","true","../../test_img/12.png","朋友","matching_task","自我","[""<img src=\""../../test_img/12.png\"" width=150 style=\""vertical-align:middle\"">---自我"",""<img src=\""../../test_img/25.png\"" width=150 style=\""vertical-align:middle\"">---生人"",""<img src=\""../../test_img/19.png\"" width=150 style=\""vertical-align:middle\"">---朋友""]","","",""
"","","","","","html-keyboard-response","89","800122","0.0-9.0-0.0-0.0-0.0-1.14","null","<span style='color:GreenYellow; font-size: 70px;'>正确! </span>","null","","","","","","","","","","","","","","","","","","","","","","","","","feedback_test","",""
"","","","","","psychophysics","90","801753","0.0-9.0-0.0-0.0-0.0-0.15","625","","arrowleft","","","","","","","","","","","","","key","arrowleft","4.1661498708008535","853.3333333333334","476","arrowleft","true","../../test_img/12.png","自我","matching_task","自我","[""<img src=\""../../test_img/12.png\"" width=150 style=\""vertical-align:middle\"">---自我"",""<img src=\""../../test_img/25.png\"" width=150 style=\""vertical-align:middle\"">---生人"",""<img src=\""../../test_img/19.png\"" width=150 style=\""vertical-align:middle\"">---朋友""]","","",""
"","","","","","html-keyboard-response","91","802265","0.0-9.0-0.0-0.0-0.0-1.15","null","<span style='color:GreenYellow; font-size: 70px;'>正确! </span>","null","","","","","","","","","","","","","","","","","","","","","","","","","feedback_test","",""
"","","","","","psychophysics","92","803975","0.0-9.0-0.0-0.0-0.0-0.16","707","","arrowleft","","","","","","","","","","","","","key","arrowleft","4.166256157635468","853.3333333333334","476","arrowleft","true","../../test_img/25.png","生人","matching_task","生人","[""<img src=\""../../test_img/12.png\"" width=150 style=\""vertical-align:middle\"">---自我"",""<img src=\""../../test_img/25.png\"" width=150 style=\""vertical-align:middle\"">---生人"",""<img src=\""../../test_img/19.png\"" width=150 style=\""vertical-align:middle\"">---朋友""]","","",""
"","","","","","html-keyboard-response","93","804484","0.0-9.0-0.0-0.0-0.0-1.16","null","<span style='color:GreenYellow; font-size: 70px;'>正确! </span>","null","","","","","","","","","","","","","","","","","","","","","","","","","feedback_test","",""
"","","","","","psychophysics","94","806526","0.0-9.0-0.0-0.0-0.0-0.17","1037","","arrowright","","","","","","","","","","","","","key","arrowright","4.166597938144426","853.3333333333334","476","arrowright","true","../../test_img/19.png","生人","matching_task","朋友","[""<img src=\""../../test_img/12.png\"" width=150 style=\""vertical-align:middle\"">---自我"",""<img src=\""../../test_img/25.png\"" width=150 style=\""vertical-align:middle\"">---生人"",""<img src=\""../../test_img/19.png\"" width=150 style=\""vertical-align:middle\"">---朋友""]","","",""
"","","","","","html-keyboard-response","95","807033","0.0-9.0-0.0-0.0-0.0-1.17","null","<span style='color:GreenYellow; font-size: 70px;'>正确! </span>","null","","","","","","","","","","","","","","","","","","","","","","","","","feedback_test","",""
"","","","","","psychophysics","96","808706","0.0-9.0-0.0-0.0-0.0-0.18","667","","arrowleft","","","","","","","","","","","","","key","arrowleft","4.165602015113219","853.3333333333334","476","arrowleft","true","../../test_img/12.png","自我","matching_task","自我","[""<img src=\""../../test_img/12.png\"" width=150 style=\""vertical-align:middle\"">---自我"",""<img src=\""../../test_img/25.png\"" width=150 style=\""vertical-align:middle\"">---生人"",""<img src=\""../../test_img/19.png\"" width=150 style=\""vertical-align:middle\"">---朋友""]","","",""
"","","","","","html-keyboard-response","97","809221","0.0-9.0-0.0-0.0-0.0-1.18","null","<span style='color:GreenYellow; font-size: 70px;'>正确! </span>","null","","","","","","","","","","","","","","","","","","","","","","","","","feedback_test","",""
"","","","","","psychophysics","98","810931","0.0-9.0-0.0-0.0-0.0-0.19","705","","arrowleft","","","","","","","","","","","","","key","arrowleft","4.166256157635468","853.3333333333334","476","arrowleft","true","../../test_img/19.png","朋友","matching_task","朋友","[""<img src=\""../../test_img/12.png\"" width=150 style=\""vertical-align:middle\"">---自我"",""<img src=\""../../test_img/25.png\"" width=150 style=\""vertical-align:middle\"">---生人"",""<img src=\""../../test_img/19.png\"" width=150 style=\""vertical-align:middle\"">---朋友""]","","",""
"","","","","","html-keyboard-response","99","811446","0.0-9.0-0.0-0.0-0.0-1.19","null","<span style='color:GreenYellow; font-size: 70px;'>正确! </span>","null","","","","","","","","","","","","","","","","","","","","","","","","","feedback_test","",""
"","","","","","psychophysics","100","813149","0.0-9.0-0.0-0.0-0.0-0.20","698","","arrowright","","","","","","","","","","","","","key","arrowright","4.166089108910834","853.3333333333334","476","arrowright","true","../../test_img/25.png","朋友","matching_task","生人","[""<img src=\""../../test_img/12.png\"" width=150 style=\""vertical-align:middle\"">---自我"",""<img src=\""../../test_img/25.png\"" width=150 style=\""vertical-align:middle\"">---生人"",""<img src=\""../../test_img/19.png\"" width=150 style=\""vertical-align:middle\"">---朋友""]","","",""
"","","","","","html-keyboard-response","101","813664","0.0-9.0-0.0-0.0-0.0-1.20","null","<span style='color:GreenYellow; font-size: 70px;'>正确! </span>","null","","","","","","","","","","","","","","","","","","","","","","","","","feedback_test","",""
"","","","","","psychophysics","102","815440","0.0-9.0-0.0-0.0-0.0-0.21","773","","arrowleft","","","","","","","","","","","","","key","arrowleft","4.166587677725229","853.3333333333334","476","arrowright","false","../../test_img/19.png","自我","matching_task","朋友","[""<img src=\""../../test_img/12.png\"" width=150 style=\""vertical-align:middle\"">---自我"",""<img src=\""../../test_img/25.png\"" width=150 style=\""vertical-align:middle\"">---生人"",""<img src=\""../../test_img/19.png\"" width=150 style=\""vertical-align:middle\"">---朋友""]","","",""
"","","","","","html-keyboard-response","103","815950","0.0-9.0-0.0-0.0-0.0-1.21","null","<span style='color:red; font-size: 70px;'>错误! </span>","null","","","","","","","","","","","","","","","","","","","","","","","","","feedback_test","",""
"","","","","","psychophysics","104","817676","0.0-9.0-0.0-0.0-0.0-0.22","721","","arrowright","","","","","","","","","","","","","key","arrowright","4.166259168704157","853.3333333333334","476","arrowright","true","../../test_img/25.png","自我","matching_task","生人","[""<img src=\""../../test_img/12.png\"" width=150 style=\""vertical-align:middle\"">---自我"",""<img src=\""../../test_img/25.png\"" width=150 style=\""vertical-align:middle\"">---生人"",""<img src=\""../../test_img/19.png\"" width=150 style=\""vertical-align:middle\"">---朋友""]","","",""
"","","","","","html-keyboard-response","105","818187","0.0-9.0-0.0-0.0-0.0-1.22","null","<span style='color:GreenYellow; font-size: 70px;'>正确! </span>","null","","","","","","","","","","","","","","","","","","","","","","","","","feedback_test","",""
"","","","","","psychophysics","106","819944","0.0-9.0-0.0-0.0-0.0-0.23","753","","arrowright","","","","","","","","","","","","","key","arrowright","4.165947242206124","853.3333333333334","476","arrowright","true","../../test_img/12.png","生人","matching_task","自我","[""<img src=\""../../test_img/12.png\"" width=150 style=\""vertical-align:middle\"">---自我"",""<img src=\""../../test_img/25.png\"" width=150 style=\""vertical-align:middle\"">---生人"",""<img src=\""../../test_img/19.png\"" width=150 style=\""vertical-align:middle\"">---朋友""]","","",""
"","","","","","html-keyboard-response","107","820446","0.0-9.0-0.0-0.0-0.0-1.23","null","<span style='color:GreenYellow; font-size: 70px;'>正确! </span>","null","","","","","","","","","","","","","","","","","","","","","","","","","feedback_test","",""
"","","","","","psychophysics","108","822241","0.0-9.0-0.0-0.0-0.0-0.24","791","","arrowleft","","","","","","","","","","","","","key","arrowleft","4.1661971830984275","853.3333333333334","476","arrowleft","true","../../test_img/19.png","朋友","matching_task","朋友","[""<img src=\""../../test_img/12.png\"" width=150 style=\""vertical-align:middle\"">---自我"",""<img src=\""../../test_img/25.png\"" width=150 style=\""vertical-align:middle\"">---生人"",""<img src=\""../../test_img/19.png\"" width=150 style=\""vertical-align:middle\"">---朋友""]","","",""
"","","","","","html-keyboard-response","109","822744","0.0-9.0-0.0-0.0-0.0-1.24","null","<span style='color:GreenYellow; font-size: 70px;'>正确! </span>","null","","","","","","","","","","","","","","","","","","","","","","","","","feedback_test","",""
"","","","","","psychophysics","110","824459","0.0-9.0-0.0-0.0-0.0-0.25","710","","arrowleft","","","","","","","","","","","","","key","arrowleft","4.165601965602023","853.3333333333334","476","arrowleft","true","../../test_img/25.png","生人","matching_task","生人","[""<img src=\""../../test_img/12.png\"" width=150 style=\""vertical-align:middle\"">---自我"",""<img src=\""../../test_img/25.png\"" width=150 style=\""vertical-align:middle\"">---生人"",""<img src=\""../../test_img/19.png\"" width=150 style=\""vertical-align:middle\"">---朋友""]","","",""
"","","","","","html-keyboard-response","111","824961","0.0-9.0-0.0-0.0-0.0-1.25","null","<span style='color:GreenYellow; font-size: 70px;'>正确! </span>","null","","","","","","","","","","","","","","","","","","","","","","","","","feedback_test","",""
"","","","","","psychophysics","112","826641","0.0-9.0-0.0-0.0-0.0-0.26","675","","arrowright","","","","","","","","","","","","","key","arrowright","4.166834170854037","853.3333333333334","476","arrowright","true","../../test_img/25.png","朋友","matching_task","生人","[""<img src=\""../../test_img/12.png\"" width=150 style=\""vertical-align:middle\"">---自我"",""<img src=\""../../test_img/25.png\"" width=150 style=\""vertical-align:middle\"">---生人"",""<img src=\""../../test_img/19.png\"" width=150 style=\""vertical-align:middle\"">---朋友""]","","",""
"","","","","","html-keyboard-response","113","827145","0.0-9.0-0.0-0.0-0.0-1.26","null","<span style='color:GreenYellow; font-size: 70px;'>正确! </span>","null","","","","","","","","","","","","","","","","","","","","","","","","","feedback_test","",""
"","","","","","psychophysics","114","828864","0.0-9.0-0.0-0.0-0.0-0.27","716","","arrowright","","","","","","","","","","","","","key","arrowright","4.165931372548905","853.3333333333334","476","arrowright","true","../../test_img/12.png","生人","matching_task","自我","[""<img src=\""../../test_img/12.png\"" width=150 style=\""vertical-align:middle\"">---自我"",""<img src=\""../../test_img/25.png\"" width=150 style=\""vertical-align:middle\"">---生人"",""<img src=\""../../test_img/19.png\"" width=150 style=\""vertical-align:middle\"">---朋友""]","","",""
"","","","","","html-keyboard-response","115","829377","0.0-9.0-0.0-0.0-0.0-1.27","null","<span style='color:GreenYellow; font-size: 70px;'>正确! </span>","null","","","","","","","","","","","","","","","","","","","","","","","","","feedback_test","",""
"","","","","","psychophysics","116","831296","0.0-9.0-0.0-0.0-0.0-0.28","915","","arrowright","","","","","","","","","","","","","key","arrowright","4.166083150984479","853.3333333333334","476","arrowright","true","../../test_img/19.png","生人","matching_task","朋友","[""<img src=\""../../test_img/12.png\"" width=150 style=\""vertical-align:middle\"">---自我"",""<img src=\""../../test_img/25.png\"" width=150 style=\""vertical-align:middle\"">---生人"",""<img src=\""../../test_img/19.png\"" width=150 style=\""vertical-align:middle\"">---朋友""]","","",""
"","","","","","html-keyboard-response","117","831799","0.0-9.0-0.0-0.0-0.0-1.28","null","<span style='color:GreenYellow; font-size: 70px;'>正确! </span>","null","","","","","","","","","","","","","","","","","","","","","","","","","feedback_test","",""
"","","","","","psychophysics","118","833800","0.0-9.0-0.0-0.0-0.0-0.29","997","","arrowright","","","","","","","","","","","","","key","arrowright","4.166176470588186","853.3333333333334","476","arrowright","true","../../test_img/19.png","自我","matching_task","朋友","[""<img src=\""../../test_img/12.png\"" width=150 style=\""vertical-align:middle\"">---自我"",""<img src=\""../../test_img/25.png\"" width=150 style=\""vertical-align:middle\"">---生人"",""<img src=\""../../test_img/19.png\"" width=150 style=\""vertical-align:middle\"">---朋友""]","","",""
"","","","","","html-keyboard-response","119","834314","0.0-9.0-0.0-0.0-0.0-1.29","null","<span style='color:GreenYellow; font-size: 70px;'>正确! </span>","null","","","","","","","","","","","","","","","","","","","","","","","","","feedback_test","",""
"","","","","","psychophysics","120","836091","0.0-9.0-0.0-0.0-0.0-0.30","773","","arrowleft","","","","","","","","","","","","","key","arrowleft","4.166350710900364","853.3333333333334","476","arrowleft","true","../../test_img/25.png","生人","matching_task","生人","[""<img src=\""../../test_img/12.png\"" width=150 style=\""vertical-align:middle\"">---自我"",""<img src=\""../../test_img/25.png\"" width=150 style=\""vertical-align:middle\"">---生人"",""<img src=\""../../test_img/19.png\"" width=150 style=\""vertical-align:middle\"">---朋友""]","","",""
"","","","","","html-keyboard-response","121","836600","0.0-9.0-0.0-0.0-0.0-1.30","null","<span style='color:GreenYellow; font-size: 70px;'>正确! </span>","null","","","","","","","","","","","","","","","","","","","","","","","","","feedback_test","",""
"","","","","","psychophysics","122","838441","0.0-9.0-0.0-0.0-0.0-0.31","835","","arrowleft","","","","","","","","","","","","","key","arrowleft","4.165903890160183","853.3333333333334","476","arrowleft","true","../../test_img/12.png","自我","matching_task","自我","[""<img src=\""../../test_img/12.png\"" width=150 style=\""vertical-align:middle\"">---自我"",""<img src=\""../../test_img/25.png\"" width=150 style=\""vertical-align:middle\"">---生人"",""<img src=\""../../test_img/19.png\"" width=150 style=\""vertical-align:middle\"">---朋友""]","","",""
"","","","","","html-keyboard-response","123","838945","0.0-9.0-0.0-0.0-0.0-1.31","null","<span style='color:GreenYellow; font-size: 70px;'>正确! </span>","null","","","","","","","","","","","","","","","","","","","","","","","","","feedback_test","",""
"","","","","","psychophysics","124","840601","0.0-9.0-0.0-0.0-0.0-0.32","654","","arrowright","","","","","","","","","","","","","key","arrowright","4.166412213740517","853.3333333333334","476","arrowright","true","../../test_img/25.png","自我","matching_task","生人","[""<img src=\""../../test_img/12.png\"" width=150 style=\""vertical-align:middle\"">---自我"",""<img src=\""../../test_img/25.png\"" width=150 style=\""vertical-align:middle\"">---生人"",""<img src=\""../../test_img/19.png\"" width=150 style=\""vertical-align:middle\"">---朋友""]","","",""
"","","","","","html-keyboard-response","125","841103","0.0-9.0-0.0-0.0-0.0-1.32","null","<span style='color:GreenYellow; font-size: 70px;'>正确! </span>","null","","","","","","","","","","","","","","","","","","","","","","","","","feedback_test","",""
"","","","","","psychophysics","126","842881","0.0-9.0-0.0-0.0-0.0-0.33","776","","arrowright","","","","","","","","","","","","","key","arrowright","4.16572104018907","853.3333333333334","476","arrowright","true","../../test_img/12.png","朋友","matching_task","自我","[""<img src=\""../../test_img/12.png\"" width=150 style=\""vertical-align:middle\"">---自我"",""<img src=\""../../test_img/25.png\"" width=150 style=\""vertical-align:middle\"">---生人"",""<img src=\""../../test_img/19.png\"" width=150 style=\""vertical-align:middle\"">---朋友""]","","",""
"","","","","","html-keyboard-response","127","843383","0.0-9.0-0.0-0.0-0.0-1.33","null","<span style='color:GreenYellow; font-size: 70px;'>正确! </span>","null","","","","","","","","","","","","","","","","","","","","","","","","","feedback_test","",""
"","","","","","psychophysics","128","845087","0.0-9.0-0.0-0.0-0.0-0.34","699","","arrowleft","","","","","","","","","","","","","key","arrowleft","4.166089108910834","853.3333333333334","476","arrowleft","true","../../test_img/12.png","自我","matching_task","自我","[""<img src=\""../../test_img/12.png\"" width=150 style=\""vertical-align:middle\"">---自我"",""<img src=\""../../test_img/25.png\"" width=150 style=\""vertical-align:middle\"">---生人"",""<img src=\""../../test_img/19.png\"" width=150 style=\""vertical-align:middle\"">---朋友""]","","",""
"","","","","","html-keyboard-response","129","845598","0.0-9.0-0.0-0.0-0.0-1.34","null","<span style='color:GreenYellow; font-size: 70px;'>正确! </span>","null","","","","","","","","","","","","","","","","","","","","","","","","","feedback_test","",""
"","","","","","psychophysics","130","847302","0.0-9.0-0.0-0.0-0.0-0.35","701","","arrowleft","","","","","","","","","","","","","key","arrowleft","4.166172839506288","853.3333333333334","476","arrowleft","true","../../test_img/19.png","朋友","matching_task","朋友","[""<img src=\""../../test_img/12.png\"" width=150 style=\""vertical-align:middle\"">---自我"",""<img src=\""../../test_img/25.png\"" width=150 style=\""vertical-align:middle\"">---生人"",""<img src=\""../../test_img/19.png\"" width=150 style=\""vertical-align:middle\"">---朋友""]","","",""
"","","","","","html-keyboard-response","131","847812","0.0-9.0-0.0-0.0-0.0-1.35","null","<span style='color:GreenYellow; font-size: 70px;'>正确! </span>","null","","","","","","","","","","","","","","","","","","","","","","","","","feedback_test","",""
"","","","","","psychophysics","132","849455","0.0-9.0-0.0-0.0-0.0-0.36","638","","arrowright","","","","","","","","","","","","","key","arrowright","4.165809768637532","853.3333333333334","476","arrowright","true","../../test_img/19.png","自我","matching_task","朋友","[""<img src=\""../../test_img/12.png\"" width=150 style=\""vertical-align:middle\"">---自我"",""<img src=\""../../test_img/25.png\"" width=150 style=\""vertical-align:middle\"">---生人"",""<img src=\""../../test_img/19.png\"" width=150 style=\""vertical-align:middle\"">---朋友""]","","",""
"","","","","","html-keyboard-response","133","849957","0.0-9.0-0.0-0.0-0.0-1.36","null","<span style='color:GreenYellow; font-size: 70px;'>正确! </span>","null","","","","","","","","","","","","","","","","","","","","","","","","","feedback_test","",""
"","","","","","psychophysics","134","851650","0.0-9.0-0.0-0.0-0.0-0.37","687","","arrowright","","","","","","","","","","","","","key","arrowright","4.165920398009835","853.3333333333334","476","arrowright","true","../../test_img/12.png","生人","matching_task","自我","[""<img src=\""../../test_img/12.png\"" width=150 style=\""vertical-align:middle\"">---自我"",""<img src=\""../../test_img/25.png\"" width=150 style=\""vertical-align:middle\"">---生人"",""<img src=\""../../test_img/19.png\"" width=150 style=\""vertical-align:middle\"">---朋友""]","","",""
"","","","","","html-keyboard-response","135","852158","0.0-9.0-0.0-0.0-0.0-1.37","null","<span style='color:GreenYellow; font-size: 70px;'>正确! </span>","null","","","","","","","","","","","","","","","","","","","","","","","","","feedback_test","",""
"","","","","","psychophysics","136","854011","0.0-9.0-0.0-0.0-0.0-0.38","848","","arrowleft","","","","","","","","","","","","","key","arrowleft","4.165909090909091","853.3333333333334","476","arrowleft","true","../../test_img/19.png","朋友","matching_task","朋友","[""<img src=\""../../test_img/12.png\"" width=150 style=\""vertical-align:middle\"">---自我"",""<img src=\""../../test_img/25.png\"" width=150 style=\""vertical-align:middle\"">---生人"",""<img src=\""../../test_img/19.png\"" width=150 style=\""vertical-align:middle\"">---朋友""]","","",""
"","","","","","html-keyboard-response","137","854520","0.0-9.0-0.0-0.0-0.0-1.38","null","<span style='color:GreenYellow; font-size: 70px;'>正确! </span>","null","","","","","","","","","","","","","","","","","","","","","","","","","feedback_test","",""
"","","","","","psychophysics","138","856139","0.0-9.0-0.0-0.0-0.0-0.39","614","","arrowleft","","","","","","","","","","","","","key","arrowleft","4.166406250000061","853.3333333333334","476","arrowleft","true","../../test_img/19.png","朋友","matching_task","朋友","[""<img src=\""../../test_img/12.png\"" width=150 style=\""vertical-align:middle\"">---自我"",""<img src=\""../../test_img/25.png\"" width=150 style=\""vertical-align:middle\"">---生人"",""<img src=\""../../test_img/19.png\"" width=150 style=\""vertical-align:middle\"">---朋友""]","","",""
"","","","","","html-keyboard-response","139","856649","0.0-9.0-0.0-0.0-0.0-1.39","null","<span style='color:GreenYellow; font-size: 70px;'>正确! </span>","null","","","","","","","","","","","","","","","","","","","","","","","","","feedback_test","",""
"","","","","","psychophysics","140","858303","0.0-9.0-0.0-0.0-0.0-0.40","649","","arrowleft","","","","","","","","","","","","","key","arrowleft","4.166071428571369","853.3333333333334","476","arrowleft","true","../../test_img/25.png","生人","matching_task","生人","[""<img src=\""../../test_img/12.png\"" width=150 style=\""vertical-align:middle\"">---自我"",""<img src=\""../../test_img/25.png\"" width=150 style=\""vertical-align:middle\"">---生人"",""<img src=\""../../test_img/19.png\"" width=150 style=\""vertical-align:middle\"">---朋友""]","","",""
"","","","","","html-keyboard-response","141","858810","0.0-9.0-0.0-0.0-0.0-1.40","null","<span style='color:GreenYellow; font-size: 70px;'>正确! </span>","null","","","","","","","","","","","","","","","","","","","","","","","","","feedback_test","",""
"","","","","","psychophysics","142","860550","0.0-9.0-0.0-0.0-0.0-0.41","735","","arrowright","","","","","","","","","","","","","key","arrowright","4.1658595641646485","853.3333333333334","476","arrowright","true","../../test_img/25.png","自我","matching_task","生人","[""<img src=\""../../test_img/12.png\"" width=150 style=\""vertical-align:middle\"">---自我"",""<img src=\""../../test_img/25.png\"" width=150 style=\""vertical-align:middle\"">---生人"",""<img src=\""../../test_img/19.png\"" width=150 style=\""vertical-align:middle\"">---朋友""]","","",""
"","","","","","html-keyboard-response","143","861059","0.0-9.0-0.0-0.0-0.0-1.41","null","<span style='color:GreenYellow; font-size: 70px;'>正确! </span>","null","","","","","","","","","","","","","","","","","","","","","","","","","feedback_test","",""
"","","","","","psychophysics","144","862775","0.0-9.0-0.0-0.0-0.0-0.42","709","","arrowleft","","","","","","","","","","","","","key","arrowleft","4.165847665847666","853.3333333333334","476","arrowleft","true","../../test_img/25.png","生人","matching_task","生人","[""<img src=\""../../test_img/12.png\"" width=150 style=\""vertical-align:middle\"">---自我"",""<img src=\""../../test_img/25.png\"" width=150 style=\""vertical-align:middle\"">---生人"",""<img src=\""../../test_img/19.png\"" width=150 style=\""vertical-align:middle\"">---朋友""]","","",""
"","","","","","html-keyboard-response","145","863289","0.0-9.0-0.0-0.0-0.0-1.42","null","<span style='color:GreenYellow; font-size: 70px;'>正确! </span>","null","","","","","","","","","","","","","","","","","","","","","","","","","feedback_test","",""
"","","","","","psychophysics","146","864875","0.0-9.0-0.0-0.0-0.0-0.43","581","","arrowleft","","","","","","","","","","","","","key","arrowleft","4.165957446808263","853.3333333333334","476","arrowleft","true","../../test_img/12.png","自我","matching_task","自我","[""<img src=\""../../test_img/12.png\"" width=150 style=\""vertical-align:middle\"">---自我"",""<img src=\""../../test_img/25.png\"" width=150 style=\""vertical-align:middle\"">---生人"",""<img src=\""../../test_img/19.png\"" width=150 style=\""vertical-align:middle\"">---朋友""]","","",""
"","","","","","html-keyboard-response","147","865380","0.0-9.0-0.0-0.0-0.0-1.43","null","<span style='color:GreenYellow; font-size: 70px;'>正确! </span>","null","","","","","","","","","","","","","","","","","","","","","","","","","feedback_test","",""
"","","","","","psychophysics","148","866978","0.0-9.0-0.0-0.0-0.0-0.44","592","","arrowleft","","","","","","","","","","","","","key","arrowleft","4.165608465608404","853.3333333333334","476","arrowleft","true","../../test_img/12.png","自我","matching_task","自我","[""<img src=\""../../test_img/12.png\"" width=150 style=\""vertical-align:middle\"">---自我"",""<img src=\""../../test_img/25.png\"" width=150 style=\""vertical-align:middle\"">---生人"",""<img src=\""../../test_img/19.png\"" width=150 style=\""vertical-align:middle\"">---朋友""]","","",""
"","","","","","html-keyboard-response","149","867490","0.0-9.0-0.0-0.0-0.0-1.44","null","<span style='color:GreenYellow; font-size: 70px;'>正确! </span>","null","","","","","","","","","","","","","","","","","","","","","","","","","feedback_test","",""
"","","","","","psychophysics","150","869356","0.0-9.0-0.0-0.0-0.0-0.45","863","","arrowright","","","","","","","","","","","","","key","arrowright","4.166139954853484","853.3333333333334","476","arrowright","true","../../test_img/25.png","朋友","matching_task","生人","[""<img src=\""../../test_img/12.png\"" width=150 style=\""vertical-align:middle\"">---自我"",""<img src=\""../../test_img/25.png\"" width=150 style=\""vertical-align:middle\"">---生人"",""<img src=\""../../test_img/19.png\"" width=150 style=\""vertical-align:middle\"">---朋友""]","","",""
"","","","","","html-keyboard-response","151","869862","0.0-9.0-0.0-0.0-0.0-1.45","null","<span style='color:GreenYellow; font-size: 70px;'>正确! </span>","null","","","","","","","","","","","","","","","","","","","","","","","","","feedback_test","",""
"","","","","","psychophysics","152","871753","0.0-9.0-0.0-0.0-0.0-0.46","884","","arrowright","","","","","","","","","","","","","key","arrowright","4.166146993318434","853.3333333333334","476","arrowright","true","../../test_img/19.png","生人","matching_task","朋友","[""<img src=\""../../test_img/12.png\"" width=150 style=\""vertical-align:middle\"">---自我"",""<img src=\""../../test_img/25.png\"" width=150 style=\""vertical-align:middle\"">---生人"",""<img src=\""../../test_img/19.png\"" width=150 style=\""vertical-align:middle\"">---朋友""]","","",""
"","","","","","html-keyboard-response","153","872257","0.0-9.0-0.0-0.0-0.0-1.46","null","<span style='color:GreenYellow; font-size: 70px;'>正确! </span>","null","","","","","","","","","","","","","","","","","","","","","","","","","feedback_test","",""
"","","","","","psychophysics","154","873958","0.0-9.0-0.0-0.0-0.0-0.47","699","","arrowright","","","","","","","","","","","","","key","arrowright","4.166336633663251","853.3333333333334","476","arrowright","true","../../test_img/12.png","朋友","matching_task","自我","[""<img src=\""../../test_img/12.png\"" width=150 style=\""vertical-align:middle\"">---自我"",""<img src=\""../../test_img/25.png\"" width=150 style=\""vertical-align:middle\"">---生人"",""<img src=\""../../test_img/19.png\"" width=150 style=\""vertical-align:middle\"">---朋友""]","","",""
"","","","","","html-keyboard-response","155","874461","0.0-9.0-0.0-0.0-0.0-1.47","null","<span style='color:GreenYellow; font-size: 70px;'>正确! </span>","null","","","","","","","","","","","","","","","","","","","","","","","","","feedback_test","",""
"","","","","","psychophysics","156","876319","0.0-9.0-0.0-0.0-0.0-0.48","855","","arrowleft","","","","","","","","","","","","","key","arrowleft","4.16583710407224","853.3333333333334","476","arrowleft","true","../../test_img/19.png","朋友","matching_task","朋友","[""<img src=\""../../test_img/12.png\"" width=150 style=\""vertical-align:middle\"">---自我"",""<img src=\""../../test_img/25.png\"" width=150 style=\""vertical-align:middle\"">---生人"",""<img src=\""../../test_img/19.png\"" width=150 style=\""vertical-align:middle\"">---朋友""]","","",""
"","","","","","html-keyboard-response","157","876832","0.0-9.0-0.0-0.0-0.0-1.48","null","<span style='color:GreenYellow; font-size: 70px;'>正确! </span>","null","","","","","","","","","","","","","","","","","","","","","","","","","feedback_test","",""
"","","","","","psychophysics","158","878488","0.0-9.0-0.0-0.0-0.0-0.49","654","","arrowleft","","","","","","","","","","","","","key","arrowleft","4.166157760814368","853.3333333333334","476","arrowleft","true","../../test_img/12.png","自我","matching_task","自我","[""<img src=\""../../test_img/12.png\"" width=150 style=\""vertical-align:middle\"">---自我"",""<img src=\""../../test_img/25.png\"" width=150 style=\""vertical-align:middle\"">---生人"",""<img src=\""../../test_img/19.png\"" width=150 style=\""vertical-align:middle\"">---朋友""]","","",""
"","","","","","html-keyboard-response","159","879001","0.0-9.0-0.0-0.0-0.0-1.49","null","<span style='color:GreenYellow; font-size: 70px;'>正确! </span>","null","","","","","","","","","","","","","","","","","","","","","","","","","feedback_test","",""
"","","","","","psychophysics","160","880927","0.0-9.0-0.0-0.0-0.0-0.50","922","","arrowright","","","","","","","","","","","","","key","arrowright","4.166157205240378","853.3333333333334","476","arrowright","true","../../test_img/12.png","生人","matching_task","自我","[""<img src=\""../../test_img/12.png\"" width=150 style=\""vertical-align:middle\"">---自我"",""<img src=\""../../test_img/25.png\"" width=150 style=\""vertical-align:middle\"">---生人"",""<img src=\""../../test_img/19.png\"" width=150 style=\""vertical-align:middle\"">---朋友""]","","",""
"","","","","","html-keyboard-response","161","881439","0.0-9.0-0.0-0.0-0.0-1.50","null","<span style='color:GreenYellow; font-size: 70px;'>正确! </span>","null","","","","","","","","","","","","","","","","","","","","","","","","","feedback_test","",""
"","","","","","psychophysics","162","883145","0.0-9.0-0.0-0.0-0.0-0.51","703","","arrowleft","","","","","","","","","","","","","key","arrowleft","4.166419753086477","853.3333333333334","476","arrowleft","true","../../test_img/25.png","生人","matching_task","生人","[""<img src=\""../../test_img/12.png\"" width=150 style=\""vertical-align:middle\"">---自我"",""<img src=\""../../test_img/25.png\"" width=150 style=\""vertical-align:middle\"">---生人"",""<img src=\""../../test_img/19.png\"" width=150 style=\""vertical-align:middle\"">---朋友""]","","",""
"","","","","","html-keyboard-response","163","883657","0.0-9.0-0.0-0.0-0.0-1.51","null","<span style='color:GreenYellow; font-size: 70px;'>正确! </span>","null","","","","","","","","","","","","","","","","","","","","","","","","","feedback_test","",""
"","","","","","psychophysics","164","885494","0.0-9.0-0.0-0.0-0.0-0.52","832","","arrowright","","","","","","","","","","","","","key","arrowright","4.166055045871613","853.3333333333334","476","arrowright","true","../../test_img/25.png","朋友","matching_task","生人","[""<img src=\""../../test_img/12.png\"" width=150 style=\""vertical-align:middle\"">---自我"",""<img src=\""../../test_img/25.png\"" width=150 style=\""vertical-align:middle\"">---生人"",""<img src=\""../../test_img/19.png\"" width=150 style=\""vertical-align:middle\"">---朋友""]","","",""
"","","","","","html-keyboard-response","165","885996","0.0-9.0-0.0-0.0-0.0-1.52","null","<span style='color:GreenYellow; font-size: 70px;'>正确! </span>","null","","","","","","","","","","","","","","","","","","","","","","","","","feedback_test","",""
"","","","","","psychophysics","166","887641","0.0-9.0-0.0-0.0-0.0-0.53","641","","arrowright","","","","","","","","","","","","","key","arrowright","4.166153846153667","853.3333333333334","476","arrowright","true","../../test_img/12.png","朋友","matching_task","自我","[""<img src=\""../../test_img/12.png\"" width=150 style=\""vertical-align:middle\"">---自我"",""<img src=\""../../test_img/25.png\"" width=150 style=\""vertical-align:middle\"">---生人"",""<img src=\""../../test_img/19.png\"" width=150 style=\""vertical-align:middle\"">---朋友""]","","",""
"","","","","","html-keyboard-response","167","888148","0.0-9.0-0.0-0.0-0.0-1.53","null","<span style='color:GreenYellow; font-size: 70px;'>正确! </span>","null","","","","","","","","","","","","","","","","","","","","","","","","","feedback_test","",""
"","","","","","psychophysics","168","890135","0.0-9.0-0.0-0.0-0.0-0.54","981","","arrowright","","","","","","","","","","","","","key","arrowright","4.166101694915303","853.3333333333334","476","arrowright","true","../../test_img/19.png","自我","matching_task","朋友","[""<img src=\""../../test_img/12.png\"" width=150 style=\""vertical-align:middle\"">---自我"",""<img src=\""../../test_img/25.png\"" width=150 style=\""vertical-align:middle\"">---生人"",""<img src=\""../../test_img/19.png\"" width=150 style=\""vertical-align:middle\"">---朋友""]","","",""
"","","","","","html-keyboard-response","169","890641","0.0-9.0-0.0-0.0-0.0-1.54","null","<span style='color:GreenYellow; font-size: 70px;'>正确! </span>","null","","","","","","","","","","","","","","","","","","","","","","","","","feedback_test","",""
"","","","","","psychophysics","170","892340","0.0-9.0-0.0-0.0-0.0-0.55","695","","arrowright","","","","","","","","","","","","","key","arrowright","4.166169154228972","853.3333333333334","476","arrowright","true","../../test_img/25.png","自我","matching_task","生人","[""<img src=\""../../test_img/12.png\"" width=150 style=\""vertical-align:middle\"">---自我"",""<img src=\""../../test_img/25.png\"" width=150 style=\""vertical-align:middle\"">---生人"",""<img src=\""../../test_img/19.png\"" width=150 style=\""vertical-align:middle\"">---朋友""]","","",""
"","","","","","html-keyboard-response","171","892847","0.0-9.0-0.0-0.0-0.0-1.55","null","<span style='color:GreenYellow; font-size: 70px;'>正确! </span>","null","","","","","","","","","","","","","","","","","","","","","","","","","feedback_test","",""
"","","","","","psychophysics","172","894608","0.0-9.0-0.0-0.0-0.0-0.56","759","","arrowleft","","","","","","","","","","","","","key","arrowleft","4.166109785202808","853.3333333333334","476","arrowleft","true","../../test_img/25.png","生人","matching_task","生人","[""<img src=\""../../test_img/12.png\"" width=150 style=\""vertical-align:middle\"">---自我"",""<img src=\""../../test_img/25.png\"" width=150 style=\""vertical-align:middle\"">---生人"",""<img src=\""../../test_img/19.png\"" width=150 style=\""vertical-align:middle\"">---朋友""]","","",""
"","","","","","html-keyboard-response","173","895113","0.0-9.0-0.0-0.0-0.0-1.56","null","<span style='color:GreenYellow; font-size: 70px;'>正确! </span>","null","","","","","","","","","","","","","","","","","","","","","","","","","feedback_test","",""
"","","","","","psychophysics","174","896731","0.0-9.0-0.0-0.0-0.0-0.57","616","","arrowleft","","","","","","","","","","","","","key","arrowleft","4.166666666666667","853.3333333333334","476","arrowleft","true","../../test_img/12.png","自我","matching_task","自我","[""<img src=\""../../test_img/12.png\"" width=150 style=\""vertical-align:middle\"">---自我"",""<img src=\""../../test_img/25.png\"" width=150 style=\""vertical-align:middle\"">---生人"",""<img src=\""../../test_img/19.png\"" width=150 style=\""vertical-align:middle\"">---朋友""]","","",""
"","","","","","html-keyboard-response","175","897232","0.0-9.0-0.0-0.0-0.0-1.57","null","<span style='color:GreenYellow; font-size: 70px;'>正确! </span>","null","","","","","","","","","","","","","","","","","","","","","","","","","feedback_test","",""
"","","","","","psychophysics","176","899231","0.0-9.0-0.0-0.0-0.0-0.58","995","","arrowleft","","","","","","","","","","","","","key","arrowleft","4.165966386554622","853.3333333333334","476","arrowleft","true","../../test_img/19.png","朋友","matching_task","朋友","[""<img src=\""../../test_img/12.png\"" width=150 style=\""vertical-align:middle\"">---自我"",""<img src=\""../../test_img/25.png\"" width=150 style=\""vertical-align:middle\"">---生人"",""<img src=\""../../test_img/19.png\"" width=150 style=\""vertical-align:middle\"">---朋友""]","","",""
"","","","","","html-keyboard-response","177","899733","0.0-9.0-0.0-0.0-0.0-1.58","null","<span style='color:GreenYellow; font-size: 70px;'>正确! </span>","null","","","","","","","","","","","","","","","","","","","","","","","","","feedback_test","",""
"","","","","","psychophysics","178","901506","0.0-9.0-0.0-0.0-0.0-0.59","770","","arrowright","","","","","","","","","","","","","key","arrowright","4.166587677724953","853.3333333333334","476","arrowright","true","../../test_img/19.png","生人","matching_task","朋友","[""<img src=\""../../test_img/12.png\"" width=150 style=\""vertical-align:middle\"">---自我"",""<img src=\""../../test_img/25.png\"" width=150 style=\""vertical-align:middle\"">---生人"",""<img src=\""../../test_img/19.png\"" width=150 style=\""vertical-align:middle\"">---朋友""]","","",""
"","","","","","html-keyboard-response","179","902014","0.0-9.0-0.0-0.0-0.0-1.59","null","<span style='color:GreenYellow; font-size: 70px;'>正确! </span>","null","","","","","","","","","","","","","","","","","","","","","","","","","feedback_test","",""
"","","","","","psychophysics","180","903741","0.0-9.0-0.0-0.0-0.0-0.60","722","","arrowleft","","","","","","","","","","","","","key","arrowleft","4.165609756097618","853.3333333333334","476","arrowleft","true","../../test_img/25.png","生人","matching_task","生人","[""<img src=\""../../test_img/12.png\"" width=150 style=\""vertical-align:middle\"">---自我"",""<img src=\""../../test_img/25.png\"" width=150 style=\""vertical-align:middle\"">---生人"",""<img src=\""../../test_img/19.png\"" width=150 style=\""vertical-align:middle\"">---朋友""]","","",""
"","","","","","html-keyboard-response","181","904254","0.0-9.0-0.0-0.0-0.0-1.60","null","<span style='color:GreenYellow; font-size: 70px;'>正确! </span>","null","","","","","","","","","","","","","","","","","","","","","","","","","feedback_test","",""
"","","","","","psychophysics","182","905964","0.0-9.0-0.0-0.0-0.0-0.61","703","","arrowright","","","","","","","","","","","","","key","arrowright","4.166256157635468","853.3333333333334","476","arrowright","true","../../test_img/12.png","生人","matching_task","自我","[""<img src=\""../../test_img/12.png\"" width=150 style=\""vertical-align:middle\"">---自我"",""<img src=\""../../test_img/25.png\"" width=150 style=\""vertical-align:middle\"">---生人"",""<img src=\""../../test_img/19.png\"" width=150 style=\""vertical-align:middle\"">---朋友""]","","",""
"","","","","","html-keyboard-response","183","906467","0.0-9.0-0.0-0.0-0.0-1.61","null","<span style='color:GreenYellow; font-size: 70px;'>正确! </span>","null","","","","","","","","","","","","","","","","","","","","","","","","","feedback_test","",""
"","","","","","psychophysics","184","908348","0.0-9.0-0.0-0.0-0.0-0.62","875","","arrowright","","","","","","","","","","","","","key","arrowright","4.166143497757795","853.3333333333334","476","arrowright","true","../../test_img/19.png","生人","matching_task","朋友","[""<img src=\""../../test_img/12.png\"" width=150 style=\""vertical-align:middle\"">---自我"",""<img src=\""../../test_img/25.png\"" width=150 style=\""vertical-align:middle\"">---生人"",""<img src=\""../../test_img/19.png\"" width=150 style=\""vertical-align:middle\"">---朋友""]","","",""
"","","","","","html-keyboard-response","185","908852","0.0-9.0-0.0-0.0-0.0-1.62","null","<span style='color:GreenYellow; font-size: 70px;'>正确! </span>","null","","","","","","","","","","","","","","","","","","","","","","","","","feedback_test","",""
"","","","","","psychophysics","186","910707","0.0-9.0-0.0-0.0-0.0-0.63","852","","arrowleft","","","","","","","","","","","","","key","arrowleft","4.166363636363795","853.3333333333334","476","arrowleft","true","../../test_img/19.png","朋友","matching_task","朋友","[""<img src=\""../../test_img/12.png\"" width=150 style=\""vertical-align:middle\"">---自我"",""<img src=\""../../test_img/25.png\"" width=150 style=\""vertical-align:middle\"">---生人"",""<img src=\""../../test_img/19.png\"" width=150 style=\""vertical-align:middle\"">---朋友""]","","",""
"","","","","","html-keyboard-response","187","911214","0.0-9.0-0.0-0.0-0.0-1.63","null","<span style='color:GreenYellow; font-size: 70px;'>正确! </span>","null","","","","","","","","","","","","","","","","","","","","","","","","","feedback_test","",""
"","","","","","psychophysics","188","912914","0.0-9.0-0.0-0.0-0.0-0.64","697","","arrowleft","","","","","","","","","","","","","key","arrowleft","4.166253101736973","853.3333333333334","476","arrowleft","true","../../test_img/25.png","生人","matching_task","生人","[""<img src=\""../../test_img/12.png\"" width=150 style=\""vertical-align:middle\"">---自我"",""<img src=\""../../test_img/25.png\"" width=150 style=\""vertical-align:middle\"">---生人"",""<img src=\""../../test_img/19.png\"" width=150 style=\""vertical-align:middle\"">---朋友""]","","",""
"","","","","","html-keyboard-response","189","913416","0.0-9.0-0.0-0.0-0.0-1.64","null","<span style='color:GreenYellow; font-size: 70px;'>正确! </span>","null","","","","","","","","","","","","","","","","","","","","","","","","","feedback_test","",""
"","","","","","psychophysics","190","915275","0.0-9.0-0.0-0.0-0.0-0.65","854","","arrowright","","","","","","","","","","","","","key","arrowright","4.166439909297105","853.3333333333334","476","arrowright","true","../../test_img/12.png","朋友","matching_task","自我","[""<img src=\""../../test_img/12.png\"" width=150 style=\""vertical-align:middle\"">---自我"",""<img src=\""../../test_img/25.png\"" width=150 style=\""vertical-align:middle\"">---生人"",""<img src=\""../../test_img/19.png\"" width=150 style=\""vertical-align:middle\"">---朋友""]","","",""
"","","","","","html-keyboard-response","191","915776","0.0-9.0-0.0-0.0-0.0-1.65","null","<span style='color:GreenYellow; font-size: 70px;'>正确! </span>","null","","","","","","","","","","","","","","","","","","","","","","","","","feedback_test","",""
"","","","","","psychophysics","192","917519","0.0-9.0-0.0-0.0-0.0-0.66","740","","arrowright","","","","","","","","","","","","","key","arrowright","4.165942028985395","853.3333333333334","476","arrowright","true","../../test_img/25.png","自我","matching_task","生人","[""<img src=\""../../test_img/12.png\"" width=150 style=\""vertical-align:middle\"">---自我"",""<img src=\""../../test_img/25.png\"" width=150 style=\""vertical-align:middle\"">---生人"",""<img src=\""../../test_img/19.png\"" width=150 style=\""vertical-align:middle\"">---朋友""]","","",""
"","","","","","html-keyboard-response","193","918025","0.0-9.0-0.0-0.0-0.0-1.66","null","<span style='color:GreenYellow; font-size: 70px;'>正确! </span>","null","","","","","","","","","","","","","","","","","","","","","","","","","feedback_test","",""
"","","","","","psychophysics","194","919762","0.0-9.0-0.0-0.0-0.0-0.67","733","","arrowleft","","","","","","","","","","","","","key","arrowleft","4.165398058252357","853.3333333333334","476","arrowleft","true","../../test_img/12.png","自我","matching_task","自我","[""<img src=\""../../test_img/12.png\"" width=150 style=\""vertical-align:middle\"">---自我"",""<img src=\""../../test_img/25.png\"" width=150 style=\""vertical-align:middle\"">---生人"",""<img src=\""../../test_img/19.png\"" width=150 style=\""vertical-align:middle\"">---朋友""]","","",""
"","","","","","html-keyboard-response","195","920275","0.0-9.0-0.0-0.0-0.0-1.67","null","<span style='color:GreenYellow; font-size: 70px;'>正确! </span>","null","","","","","","","","","","","","","","","","","","","","","","","","","feedback_test","",""
"","","","","","psychophysics","196","922404","0.0-9.0-0.0-0.0-0.0-0.68","1125","","arrowright","","","","","","","","","","","","","key","arrowright","4.166205533597022","853.3333333333334","476","arrowright","true","../../test_img/19.png","自我","matching_task","朋友","[""<img src=\""../../test_img/12.png\"" width=150 style=\""vertical-align:middle\"">---自我"",""<img src=\""../../test_img/25.png\"" width=150 style=\""vertical-align:middle\"">---生人"",""<img src=\""../../test_img/19.png\"" width=150 style=\""vertical-align:middle\"">---朋友""]","","",""
"","","","","","html-keyboard-response","197","922919","0.0-9.0-0.0-0.0-0.0-1.68","null","<span style='color:GreenYellow; font-size: 70px;'>正确! </span>","null","","","","","","","","","","","","","","","","","","","","","","","","","feedback_test","",""
"","","","","","psychophysics","198","924779","0.0-9.0-0.0-0.0-0.0-0.69","855","","arrowright","","","","","","","","","","","","","key","arrowright","4.166063348416342","853.3333333333334","476","arrowright","true","../../test_img/25.png","朋友","matching_task","生人","[""<img src=\""../../test_img/12.png\"" width=150 style=\""vertical-align:middle\"">---自我"",""<img src=\""../../test_img/25.png\"" width=150 style=\""vertical-align:middle\"">---生人"",""<img src=\""../../test_img/19.png\"" width=150 style=\""vertical-align:middle\"">---朋友""]","","",""
"","","","","","html-keyboard-response","199","925293","0.0-9.0-0.0-0.0-0.0-1.69","null","<span style='color:GreenYellow; font-size: 70px;'>正确! </span>","null","","","","","","","","","","","","","","","","","","","","","","","","","feedback_test","",""
"","","","","","psychophysics","200","926904","0.0-9.0-0.0-0.0-0.0-0.70","605","","arrowleft","","","","","","","","","","","","","key","arrowleft","4.166492146596798","853.3333333333334","476","arrowleft","true","../../test_img/12.png","自我","matching_task","自我","[""<img src=\""../../test_img/12.png\"" width=150 style=\""vertical-align:middle\"">---自我"",""<img src=\""../../test_img/25.png\"" width=150 style=\""vertical-align:middle\"">---生人"",""<img src=\""../../test_img/19.png\"" width=150 style=\""vertical-align:middle\"">---朋友""]","","",""
"","","","","","html-keyboard-response","201","927405","0.0-9.0-0.0-0.0-0.0-1.70","null","<span style='color:GreenYellow; font-size: 70px;'>正确! </span>","null","","","","","","","","","","","","","","","","","","","","","","","","","feedback_test","",""
"","","","","","psychophysics","202","929100","0.0-9.0-0.0-0.0-0.0-0.71","689","","arrowright","","","","","","","","","","","","","key","arrowright","4.165920398010124","853.3333333333334","476","arrowleft","false","../../test_img/19.png","朋友","matching_task","朋友","[""<img src=\""../../test_img/12.png\"" width=150 style=\""vertical-align:middle\"">---自我"",""<img src=\""../../test_img/25.png\"" width=150 style=\""vertical-align:middle\"">---生人"",""<img src=\""../../test_img/19.png\"" width=150 style=\""vertical-align:middle\"">---朋友""]","","",""
"","","","","","html-keyboard-response","203","929608","0.0-9.0-0.0-0.0-0.0-1.71","null","<span style='color:red; font-size: 70px;'>错误! </span>","null","","","","","","","","","","","","","","","","","","","","","","","","","feedback_test","",""
"","","","","","html-keyboard-response","204","1017369","0.0-9.0-0.0-0.0-1.0","87759","<style>.context{color:white; font-size: 35px; line-height:40px}</style>                          <div><p class='context'>您正确回答了97% 的试次。</p><p class='context'>您的平均反应时为755毫秒。</p><p class='context'>请按任意键进入休息</p></div>"," ","","","","","","","","","","","","","","","","","","","","","","","","","","",""
"","","","","","html-button-response","205","1023134","0.0-9.0-0.0-0.0-2.0","5763","
                    <p>知觉匹配任务中，您还剩余4组实验</p>
                    <p>现在是休息时间，当您结束休息后，您可以点击 结束休息 按钮 继续</p>
                    <p>建议休息时间还剩余<span id=""iii"">60</span>秒</p>","0","","","","","","","","","","","","","","","","","","","","","","","","","","",""
"","","","","","psychophysics","206","1024977","0.0-9.0-0.0-0.0-0.1-0.72","841","","arrowright","","","","","","","","","","","","","key","arrowright","4.166210045661941","853.3333333333334","476","arrowright","true","../../test_img/19.png","自我","matching_task","朋友","[""<img src=\""../../test_img/12.png\"" width=150 style=\""vertical-align:middle\"">---自我"",""<img src=\""../../test_img/25.png\"" width=150 style=\""vertical-align:middle\"">---生人"",""<img src=\""../../test_img/19.png\"" width=150 style=\""vertical-align:middle\"">---朋友""]","","",""
"","","","","","html-keyboard-response","207","1025478","0.0-9.0-0.0-0.0-0.1-1.72","null","<span style='color:GreenYellow; font-size: 70px;'>正确! </span>","null","","","","","","","","","","","","","","","","","","","","","","","","","feedback_test","",""
"","","","","","psychophysics","208","1027397","0.0-9.0-0.0-0.0-0.1-0.73","911","","arrowright","","","","","","","","","","","","","key","arrowright","4.16578947368416","853.3333333333334","476","arrowright","true","../../test_img/25.png","朋友","matching_task","生人","[""<img src=\""../../test_img/12.png\"" width=150 style=\""vertical-align:middle\"">---自我"",""<img src=\""../../test_img/25.png\"" width=150 style=\""vertical-align:middle\"">---生人"",""<img src=\""../../test_img/19.png\"" width=150 style=\""vertical-align:middle\"">---朋友""]","","",""
"","","","","","html-keyboard-response","209","1027910","0.0-9.0-0.0-0.0-0.1-1.73","null","<span style='color:GreenYellow; font-size: 70px;'>正确! </span>","null","","","","","","","","","","","","","","","","","","","","","","","","","feedback_test","",""
"","","","","","psychophysics","210","1029692","0.0-9.0-0.0-0.0-0.1-0.74","777","","arrowleft","","","","","","","","","","","","","key","arrowleft","4.166430260047061","853.3333333333334","476","arrowleft","true","../../test_img/19.png","朋友","matching_task","朋友","[""<img src=\""../../test_img/12.png\"" width=150 style=\""vertical-align:middle\"">---自我"",""<img src=\""../../test_img/25.png\"" width=150 style=\""vertical-align:middle\"">---生人"",""<img src=\""../../test_img/19.png\"" width=150 style=\""vertical-align:middle\"">---朋友""]","","",""
"","","","","","html-keyboard-response","211","1030194","0.0-9.0-0.0-0.0-0.1-1.74","null","<span style='color:GreenYellow; font-size: 70px;'>正确! </span>","null","","","","","","","","","","","","","","","","","","","","","","","","","feedback_test","",""
"","","","","","psychophysics","212","1031908","0.0-9.0-0.0-0.0-0.1-0.75","711","","arrowright","","","","","","","","","","","","","key","arrowright","4.166093366093309","853.3333333333334","476","arrowright","true","../../test_img/25.png","自我","matching_task","生人","[""<img src=\""../../test_img/12.png\"" width=150 style=\""vertical-align:middle\"">---自我"",""<img src=\""../../test_img/25.png\"" width=150 style=\""vertical-align:middle\"">---生人"",""<img src=\""../../test_img/19.png\"" width=150 style=\""vertical-align:middle\"">---朋友""]","","",""
"","","","","","html-keyboard-response","213","1032417","0.0-9.0-0.0-0.0-0.1-1.75","null","<span style='color:GreenYellow; font-size: 70px;'>正确! </span>","null","","","","","","","","","","","","","","","","","","","","","","","","","feedback_test","",""
"","","","","","psychophysics","214","1034170","0.0-9.0-0.0-0.0-0.1-0.76","748","","arrowleft","","","","","","","","","","","","","key","arrowleft","4.166346153846321","853.3333333333334","476","arrowleft","true","../../test_img/25.png","生人","matching_task","生人","[""<img src=\""../../test_img/12.png\"" width=150 style=\""vertical-align:middle\"">---自我"",""<img src=\""../../test_img/25.png\"" width=150 style=\""vertical-align:middle\"">---生人"",""<img src=\""../../test_img/19.png\"" width=150 style=\""vertical-align:middle\"">---朋友""]","","",""
"","","","","","html-keyboard-response","215","1034684","0.0-9.0-0.0-0.0-0.1-1.76","null","<span style='color:GreenYellow; font-size: 70px;'>正确! </span>","null","","","","","","","","","","","","","","","","","","","","","","","","","feedback_test","",""
"","","","","","psychophysics","216","1036466","0.0-9.0-0.0-0.0-0.1-0.77","777","","arrowleft","","","","","","","","","","","","","key","arrowleft","4.166430260047337","853.3333333333334","476","arrowleft","true","../../test_img/19.png","朋友","matching_task","朋友","[""<img src=\""../../test_img/12.png\"" width=150 style=\""vertical-align:middle\"">---自我"",""<img src=\""../../test_img/25.png\"" width=150 style=\""vertical-align:middle\"">---生人"",""<img src=\""../../test_img/19.png\"" width=150 style=\""vertical-align:middle\"">---朋友""]","","",""
"","","","","","html-keyboard-response","217","1036980","0.0-9.0-0.0-0.0-0.1-1.77","null","<span style='color:GreenYellow; font-size: 70px;'>正确! </span>","null","","","","","","","","","","","","","","","","","","","","","","","","","feedback_test","",""
"","","","","","psychophysics","218","1038759","0.0-9.0-0.0-0.0-0.1-0.78","774","","arrowright","","","","","","","","","","","","","key","arrowright","4.1661137440757745","853.3333333333334","476","arrowright","true","../../test_img/12.png","朋友","matching_task","自我","[""<img src=\""../../test_img/12.png\"" width=150 style=\""vertical-align:middle\"">---自我"",""<img src=\""../../test_img/25.png\"" width=150 style=\""vertical-align:middle\"">---生人"",""<img src=\""../../test_img/19.png\"" width=150 style=\""vertical-align:middle\"">---朋友""]","","",""
"","","","","","html-keyboard-response","219","1039262","0.0-9.0-0.0-0.0-0.1-1.78","null","<span style='color:GreenYellow; font-size: 70px;'>正确! </span>","null","","","","","","","","","","","","","","","","","","","","","","","","","feedback_test","",""
"","","","","","psychophysics","220","1041249","0.0-9.0-0.0-0.0-0.1-0.79","981","","arrowright","","","","","","","","","","","","","key","arrowright","4.166101694915303","853.3333333333334","476","arrowright","true","../../test_img/12.png","生人","matching_task","自我","[""<img src=\""../../test_img/12.png\"" width=150 style=\""vertical-align:middle\"">---自我"",""<img src=\""../../test_img/25.png\"" width=150 style=\""vertical-align:middle\"">---生人"",""<img src=\""../../test_img/19.png\"" width=150 style=\""vertical-align:middle\"">---朋友""]","","",""
"","","","","","html-keyboard-response","221","1041762","0.0-9.0-0.0-0.0-0.1-1.79","null","<span style='color:GreenYellow; font-size: 70px;'>正确! </span>","null","","","","","","","","","","","","","","","","","","","","","","","","","feedback_test","",""
"","","","","","psychophysics","222","1043428","0.0-9.0-0.0-0.0-0.1-0.80","660","","arrowleft","","","","","","","","","","","","","key","arrowleft","4.166329113923933","853.3333333333334","476","arrowleft","true","../../test_img/25.png","生人","matching_task","生人","[""<img src=\""../../test_img/12.png\"" width=150 style=\""vertical-align:middle\"">---自我"",""<img src=\""../../test_img/25.png\"" width=150 style=\""vertical-align:middle\"">---生人"",""<img src=\""../../test_img/19.png\"" width=150 style=\""vertical-align:middle\"">---朋友""]","","",""
"","","","","","html-keyboard-response","223","1043932","0.0-9.0-0.0-0.0-0.1-1.80","null","<span style='color:GreenYellow; font-size: 70px;'>正确! </span>","null","","","","","","","","","","","","","","","","","","","","","","","","","feedback_test","",""
"","","","","","psychophysics","224","1045820","0.0-9.0-0.0-0.0-0.1-0.81","882","","arrowright","","","","","","","","","","","","","key","arrowright","4.166294642857143","853.3333333333334","476","arrowright","true","../../test_img/19.png","生人","matching_task","朋友","[""<img src=\""../../test_img/12.png\"" width=150 style=\""vertical-align:middle\"">---自我"",""<img src=\""../../test_img/25.png\"" width=150 style=\""vertical-align:middle\"">---生人"",""<img src=\""../../test_img/19.png\"" width=150 style=\""vertical-align:middle\"">---朋友""]","","",""
"","","","","","html-keyboard-response","225","1046323","0.0-9.0-0.0-0.0-0.1-1.81","null","<span style='color:GreenYellow; font-size: 70px;'>正确! </span>","null","","","","","","","","","","","","","","","","","","","","","","","","","feedback_test","",""
"","","","","","psychophysics","226","1047865","0.0-9.0-0.0-0.0-0.1-0.82","536","","arrowleft","","","","","","","","","","","","","key","arrowleft","4.166027397259891","853.3333333333334","476","arrowleft","true","../../test_img/12.png","自我","matching_task","自我","[""<img src=\""../../test_img/12.png\"" width=150 style=\""vertical-align:middle\"">---自我"",""<img src=\""../../test_img/25.png\"" width=150 style=\""vertical-align:middle\"">---生人"",""<img src=\""../../test_img/19.png\"" width=150 style=\""vertical-align:middle\"">---朋友""]","","",""
"","","","","","html-keyboard-response","227","1048370","0.0-9.0-0.0-0.0-0.1-1.82","null","<span style='color:GreenYellow; font-size: 70px;'>正确! </span>","null","","","","","","","","","","","","","","","","","","","","","","","","","feedback_test","",""
"","","","","","psychophysics","228","1049970","0.0-9.0-0.0-0.0-0.1-0.83","595","","arrowleft","","","","","","","","","","","","","key","arrowleft","4.1659630606863844","853.3333333333334","476","arrowleft","true","../../test_img/12.png","自我","matching_task","自我","[""<img src=\""../../test_img/12.png\"" width=150 style=\""vertical-align:middle\"">---自我"",""<img src=\""../../test_img/25.png\"" width=150 style=\""vertical-align:middle\"">---生人"",""<img src=\""../../test_img/19.png\"" width=150 style=\""vertical-align:middle\"">---朋友""]","","",""
"","","","","","html-keyboard-response","229","1050476","0.0-9.0-0.0-0.0-0.1-1.83","null","<span style='color:GreenYellow; font-size: 70px;'>正确! </span>","null","","","","","","","","","","","","","","","","","","","","","","","","","feedback_test","",""
"","","","","","psychophysics","230","1052236","0.0-9.0-0.0-0.0-0.1-0.84","758","","arrowright","","","","","","","","","","","","","key","arrowright","4.16613397129163","853.3333333333334","476","arrowright","true","../../test_img/25.png","朋友","matching_task","生人","[""<img src=\""../../test_img/12.png\"" width=150 style=\""vertical-align:middle\"">---自我"",""<img src=\""../../test_img/25.png\"" width=150 style=\""vertical-align:middle\"">---生人"",""<img src=\""../../test_img/19.png\"" width=150 style=\""vertical-align:middle\"">---朋友""]","","",""
"","","","","","html-keyboard-response","231","1052740","0.0-9.0-0.0-0.0-0.1-1.84","null","<span style='color:GreenYellow; font-size: 70px;'>正确! </span>","null","","","","","","","","","","","","","","","","","","","","","","","","","feedback_test","",""
"","","","","","psychophysics","232","1054439","0.0-9.0-0.0-0.0-0.1-0.85","694","","arrowright","","","","","","","","","","","","","key","arrowright","4.1657568238214555","853.3333333333334","476","arrowright","true","../../test_img/25.png","自我","matching_task","生人","[""<img src=\""../../test_img/12.png\"" width=150 style=\""vertical-align:middle\"">---自我"",""<img src=\""../../test_img/25.png\"" width=150 style=\""vertical-align:middle\"">---生人"",""<img src=\""../../test_img/19.png\"" width=150 style=\""vertical-align:middle\"">---朋友""]","","",""
"","","","","","html-keyboard-response","233","1054954","0.0-9.0-0.0-0.0-0.1-1.85","null","<span style='color:GreenYellow; font-size: 70px;'>正确! </span>","null","","","","","","","","","","","","","","","","","","","","","","","","","feedback_test","",""
"","","","","","psychophysics","234","1056515","0.0-9.0-0.0-0.0-0.1-0.86","557","","arrowleft","","","","","","","","","","","","","key","arrowleft","4.166486486486109","853.3333333333334","476","arrowleft","true","../../test_img/12.png","自我","matching_task","自我","[""<img src=\""../../test_img/12.png\"" width=150 style=\""vertical-align:middle\"">---自我"",""<img src=\""../../test_img/25.png\"" width=150 style=\""vertical-align:middle\"">---生人"",""<img src=\""../../test_img/19.png\"" width=150 style=\""vertical-align:middle\"">---朋友""]","","",""
"","","","","","html-keyboard-response","235","1057024","0.0-9.0-0.0-0.0-0.1-1.86","null","<span style='color:GreenYellow; font-size: 70px;'>正确! </span>","null","","","","","","","","","","","","","","","","","","","","","","","","","feedback_test","",""
"","","","","","psychophysics","236","1058717","0.0-9.0-0.0-0.0-0.1-0.87","689","","arrowleft","","","","","","","","","","","","","key","arrowleft","4.166169154228972","853.3333333333334","476","arrowleft","true","../../test_img/25.png","生人","matching_task","生人","[""<img src=\""../../test_img/12.png\"" width=150 style=\""vertical-align:middle\"">---自我"",""<img src=\""../../test_img/25.png\"" width=150 style=\""vertical-align:middle\"">---生人"",""<img src=\""../../test_img/19.png\"" width=150 style=\""vertical-align:middle\"">---朋友""]","","",""
"","","","","","html-keyboard-response","237","1059230","0.0-9.0-0.0-0.0-0.1-1.87","null","<span style='color:GreenYellow; font-size: 70px;'>正确! </span>","null","","","","","","","","","","","","","","","","","","","","","","","","","feedback_test","",""
"","","","","","psychophysics","238","1061017","0.0-9.0-0.0-0.0-0.1-0.88","780","","arrowleft","","","","","","","","","","","","","key","arrowleft","4.166037735848837","853.3333333333334","476","arrowleft","true","../../test_img/19.png","朋友","matching_task","朋友","[""<img src=\""../../test_img/12.png\"" width=150 style=\""vertical-align:middle\"">---自我"",""<img src=\""../../test_img/25.png\"" width=150 style=\""vertical-align:middle\"">---生人"",""<img src=\""../../test_img/19.png\"" width=150 style=\""vertical-align:middle\"">---朋友""]","","",""
"","","","","","html-keyboard-response","239","1061529","0.0-9.0-0.0-0.0-0.1-1.88","null","<span style='color:GreenYellow; font-size: 70px;'>正确! </span>","null","","","","","","","","","","","","","","","","","","","","","","","","","feedback_test","",""
"","","","","","psychophysics","240","1063655","0.0-9.0-0.0-0.0-0.1-0.89","1123","","arrowright","","","","","","","","","","","","","key","arrowright","4.166600790513926","853.3333333333334","476","arrowright","true","../../test_img/19.png","自我","matching_task","朋友","[""<img src=\""../../test_img/12.png\"" width=150 style=\""vertical-align:middle\"">---自我"",""<img src=\""../../test_img/25.png\"" width=150 style=\""vertical-align:middle\"">---生人"",""<img src=\""../../test_img/19.png\"" width=150 style=\""vertical-align:middle\"">---朋友""]","","",""
"","","","","","html-keyboard-response","241","1064159","0.0-9.0-0.0-0.0-0.1-1.89","null","<span style='color:GreenYellow; font-size: 70px;'>正确! </span>","null","","","","","","","","","","","","","","","","","","","","","","","","","feedback_test","",""
"","","","","","psychophysics","242","1065764","0.0-9.0-0.0-0.0-0.1-0.90","600","","arrowleft","","","","","","","","","","","","","key","arrowleft","4.166052631578579","853.3333333333334","476","arrowleft","true","../../test_img/12.png","自我","matching_task","自我","[""<img src=\""../../test_img/12.png\"" width=150 style=\""vertical-align:middle\"">---自我"",""<img src=\""../../test_img/25.png\"" width=150 style=\""vertical-align:middle\"">---生人"",""<img src=\""../../test_img/19.png\"" width=150 style=\""vertical-align:middle\"">---朋友""]","","",""
"","","","","","html-keyboard-response","243","1066268","0.0-9.0-0.0-0.0-0.1-1.90","null","<span style='color:GreenYellow; font-size: 70px;'>正确! </span>","null","","","","","","","","","","","","","","","","","","","","","","","","","feedback_test","",""
"","","","","","psychophysics","244","1067937","0.0-9.0-0.0-0.0-0.1-0.91","665","","arrowleft","","","","","","","","","","","","","key","arrowleft","4.166414141413906","853.3333333333334","476","arrowleft","true","../../test_img/25.png","生人","matching_task","生人","[""<img src=\""../../test_img/12.png\"" width=150 style=\""vertical-align:middle\"">---自我"",""<img src=\""../../test_img/25.png\"" width=150 style=\""vertical-align:middle\"">---生人"",""<img src=\""../../test_img/19.png\"" width=150 style=\""vertical-align:middle\"">---朋友""]","","",""
"","","","","","html-keyboard-response","245","1068441","0.0-9.0-0.0-0.0-0.1-1.91","null","<span style='color:GreenYellow; font-size: 70px;'>正确! </span>","null","","","","","","","","","","","","","","","","","","","","","","","","","feedback_test","",""
"","","","","","psychophysics","246","1070272","0.0-9.0-0.0-0.0-0.1-0.92","825","","arrowright","","","","","","","","","","","","","key","arrowright","4.166359447004501","853.3333333333334","476","arrowright","true","../../test_img/19.png","生人","matching_task","朋友","[""<img src=\""../../test_img/12.png\"" width=150 style=\""vertical-align:middle\"">---自我"",""<img src=\""../../test_img/25.png\"" width=150 style=\""vertical-align:middle\"">---生人"",""<img src=\""../../test_img/19.png\"" width=150 style=\""vertical-align:middle\"">---朋友""]","","",""
"","","","","","html-keyboard-response","247","1070778","0.0-9.0-0.0-0.0-0.1-1.92","null","<span style='color:GreenYellow; font-size: 70px;'>正确! </span>","null","","","","","","","","","","","","","","","","","","","","","","","","","feedback_test","",""
"","","","","","psychophysics","248","1072354","0.0-9.0-0.0-0.0-0.1-0.93","569","","arrowleft","","","","","","","","","","","","","key","arrowleft","4.165893048128328","853.3333333333334","476","arrowright","false","../../test_img/12.png","朋友","matching_task","自我","[""<img src=\""../../test_img/12.png\"" width=150 style=\""vertical-align:middle\"">---自我"",""<img src=\""../../test_img/25.png\"" width=150 style=\""vertical-align:middle\"">---生人"",""<img src=\""../../test_img/19.png\"" width=150 style=\""vertical-align:middle\"">---朋友""]","","",""
"","","","","","html-keyboard-response","249","1072861","0.0-9.0-0.0-0.0-0.1-1.93","null","<span style='color:red; font-size: 70px;'>错误! </span>","null","","","","","","","","","","","","","","","","","","","","","","","","","feedback_test","",""
"","","","","","psychophysics","250","1074604","0.0-9.0-0.0-0.0-0.1-0.94","737","","arrowleft","","","","","","","","","","","","","key","arrowleft","4.166048309178618","853.3333333333334","476","arrowleft","true","../../test_img/19.png","朋友","matching_task","朋友","[""<img src=\""../../test_img/12.png\"" width=150 style=\""vertical-align:middle\"">---自我"",""<img src=\""../../test_img/25.png\"" width=150 style=\""vertical-align:middle\"">---生人"",""<img src=\""../../test_img/19.png\"" width=150 style=\""vertical-align:middle\"">---朋友""]","","",""
"","","","","","html-keyboard-response","251","1075114","0.0-9.0-0.0-0.0-0.1-1.94","null","<span style='color:GreenYellow; font-size: 70px;'>正确! </span>","null","","","","","","","","","","","","","","","","","","","","","","","","","feedback_test","",""
