"success","timeout","failed_images","failed_audio","failed_video","trial_type","trial_index","time_elapsed","internal_node_id","rt","stimulus","response","value","item_width_mm","item_height_mm","item_width_px","px2mm","view_dist_mm","item_width_deg","px2deg","scale_factor","win_width_deg","win_height_deg","view_history","response_type","key_press","avg_frame_time","center_x","center_y","correct_response","correct","Image","word","condition","shape","association","screen_id","LeftLable","RightLable"
"true","false","[]","[]","[]","preload","0","6732","0.0-0.0","","","","","","","","","","","","","","","","","","","","","","","","","","","","","",""
"","","","","","html-keyboard-response","1","53735","0.0-1.0","47003","
     <p>您好，欢迎参加本次实验。</p>
     <p>为充分保障您的权利，请确保您已经知晓并同意《参与实验同意书》以及《数据公开知情同意书》。</p>
     <p>如果您未见过上述内容，请咨询实验员。</p>
     <p>如果您选择继续实验，则表示您已经清楚两份知情同意书的内容并同意。</p>
     <p> <div style = ""color: green""><按任意键至下页></div> </p>
     "," ","","","","","","","","","","","","","","","","","","","","","","","","","","",""
"","","","","","html-keyboard-response","2","54893","0.0-2.0","1158","
     <p>本实验首先需要您填写一些基本个人信息。</p>
     <p> <div style = ""color: green""><按任意键至下页></div></p>
     "," ","","","","","","","","","","","","","","","","","","","","","","","","","","",""
"","","","","","call-function","3","54894","0.0-3.0-0.0","","","","","","","","","","","","","","","","","","","","","","","","","","","","","",""
"","","","","","survey-html-form","4","56803","0.0-3.0-1.0","1906","","{""Q0"":""23""}","","","","","","","","","","","","","","","","","","","","","","","","","","",""
"","","","","","html-button-response","5","57633","0.0-3.0-2.0","829","<p style = 'color : white'>您的性别</p>","0","","","","","","","","","","","","","","","","","","","","","","","","","","",""
"","","","","","survey-html-form","6","62074","0.0-3.0-3.0","4441","","{""Q0"":""2001""}","","","","","","","","","","","","","","","","","","","","","","","","","","",""
"","","","","","survey-html-form","7","65764","0.0-3.0-4.0","3689","","{""Q0"":""6""}","","","","","","","","","","","","","","","","","","","","","","","","","","",""
"","","","","","virtual-chinrest","8","430275","0.0-4.0","364510","","","","85.6","53.98","437.52853391643634","5.115893534595831","559.39","8.750570678328726","50","0.8776570445879542","33.76","16.36","","","","","","","","","","","","","","","",""
"true","","","","","fullscreen","9","432955","0.0-5.0","","","","","","","","","","","","","","","","","","","","","","","","","","","","","",""
"","","","","","instructions","10","488880","0.0-6.0","55925","","","","","","","","","","","","","","[{""page_index"":0,""viewing_time"":18036},{""page_index"":1,""viewing_time"":14998},{""page_index"":2,""viewing_time"":19209},{""page_index"":3,""viewing_time"":1720},{""page_index"":4,""viewing_time"":1962}]","","","","","","","","","","","","","","",""
"","","","","","psychophysics","11","490736","0.0-7.0-0.0-0.0","846","","arrowleft","","","","","","","","","","","","","key","arrowleft","4.253103448275809","853.3333333333334","476","arrowleft","true","../../test_img/22.png","生人","prac_matching_task","朋友","[""<img src=\""../../test_img/26.png\"" width=150 style=\""vertical-align:middle\"">---自我"",""<img src=\""../../test_img/22.png\"" width=150 style=\""vertical-align:middle\"">---朋友"",""<img src=\""../../test_img/15.png\"" width=150 style=\""vertical-align:middle\"">---生人""]","","",""
"","","","","","html-keyboard-response","12","491040","0.0-7.0-0.0-1.0","null","<span style='color:GreenYellow; font-size: 70px;'>正确! </span>","null","","","","","","","","","","","","","","","","","","","","","","","","","feedback_test","",""
"","","","","","psychophysics","13","492855","0.0-7.0-0.0-0.1","814","","arrowright","","","","","","","","","","","","","key","arrowright","4.23278688524582","853.3333333333334","476","arrowleft","false","../../test_img/15.png","自我","prac_matching_task","生人","[""<img src=\""../../test_img/26.png\"" width=150 style=\""vertical-align:middle\"">---自我"",""<img src=\""../../test_img/22.png\"" width=150 style=\""vertical-align:middle\"">---朋友"",""<img src=\""../../test_img/15.png\"" width=150 style=\""vertical-align:middle\"">---生人""]","","",""
"","","","","","html-keyboard-response","14","493159","0.0-7.0-0.0-1.1","null","<span style='color:red; font-size: 70px;'>错误! </span>","null","","","","","","","","","","","","","","","","","","","","","","","","","feedback_test","",""
"","","","","","psychophysics","15","494848","0.0-7.0-0.0-0.2","685","","arrowleft","","","","","","","","","","","","","key","arrowleft","4.22939698492474","853.3333333333334","476","arrowright","false","../../test_img/15.png","生人","prac_matching_task","生人","[""<img src=\""../../test_img/26.png\"" width=150 style=\""vertical-align:middle\"">---自我"",""<img src=\""../../test_img/22.png\"" width=150 style=\""vertical-align:middle\"">---朋友"",""<img src=\""../../test_img/15.png\"" width=150 style=\""vertical-align:middle\"">---生人""]","","",""
"","","","","","html-keyboard-response","16","495156","0.0-7.0-0.0-1.2","null","<span style='color:red; font-size: 70px;'>错误! </span>","null","","","","","","","","","","","","","","","","","","","","","","","","","feedback_test","",""
"","","","","","psychophysics","17","497075","0.0-7.0-0.0-0.3","918","","arrowleft","","","","","","","","","","","","","key","arrowleft","4.2123076923076415","853.3333333333334","476","arrowright","false","../../test_img/22.png","朋友","prac_matching_task","朋友","[""<img src=\""../../test_img/26.png\"" width=150 style=\""vertical-align:middle\"">---自我"",""<img src=\""../../test_img/22.png\"" width=150 style=\""vertical-align:middle\"">---朋友"",""<img src=\""../../test_img/15.png\"" width=150 style=\""vertical-align:middle\"">---生人""]","","",""
"","","","","","html-keyboard-response","18","497385","0.0-7.0-0.0-1.3","null","<span style='color:red; font-size: 70px;'>错误! </span>","null","","","","","","","","","","","","","","","","","","","","","","","","","feedback_test","",""
"","","","","","psychophysics","19","499024","0.0-7.0-0.0-0.4","633","","arrowright","","","","","","","","","","","","","key","arrowright","4.2644908616189205","853.3333333333334","476","arrowright","true","../../test_img/22.png","朋友","prac_matching_task","朋友","[""<img src=\""../../test_img/26.png\"" width=150 style=\""vertical-align:middle\"">---自我"",""<img src=\""../../test_img/22.png\"" width=150 style=\""vertical-align:middle\"">---朋友"",""<img src=\""../../test_img/15.png\"" width=150 style=\""vertical-align:middle\"">---生人""]","","",""
"","","","","","html-keyboard-response","20","499327","0.0-7.0-0.0-1.4","null","<span style='color:GreenYellow; font-size: 70px;'>正确! </span>","null","","","","","","","","","","","","","","","","","","","","","","","","","feedback_test","",""
"","","","","","psychophysics","21","500959","0.0-7.0-0.0-0.5","631","","arrowright","","","","","","","","","","","","","key","arrowright","4.174807197943445","853.3333333333334","476","arrowleft","false","../../test_img/22.png","自我","prac_matching_task","朋友","[""<img src=\""../../test_img/26.png\"" width=150 style=\""vertical-align:middle\"">---自我"",""<img src=\""../../test_img/22.png\"" width=150 style=\""vertical-align:middle\"">---朋友"",""<img src=\""../../test_img/15.png\"" width=150 style=\""vertical-align:middle\"">---生人""]","","",""
"","","","","","html-keyboard-response","22","501262","0.0-7.0-0.0-1.5","null","<span style='color:red; font-size: 70px;'>错误! </span>","null","","","","","","","","","","","","","","","","","","","","","","","","","feedback_test","",""
"","","","","","psychophysics","23","503064","0.0-7.0-0.0-0.6","791","","arrowright","","","","","","","","","","","","","key","arrowright","4.186247086247141","853.3333333333334","476","arrowleft","false","../../test_img/26.png","朋友","prac_matching_task","自我","[""<img src=\""../../test_img/26.png\"" width=150 style=\""vertical-align:middle\"">---自我"",""<img src=\""../../test_img/22.png\"" width=150 style=\""vertical-align:middle\"">---朋友"",""<img src=\""../../test_img/15.png\"" width=150 style=\""vertical-align:middle\"">---生人""]","","",""
"","","","","","html-keyboard-response","24","503370","0.0-7.0-0.0-1.6","null","<span style='color:red; font-size: 70px;'>错误! </span>","null","","","","","","","","","","","","","","","","","","","","","","","","","feedback_test","",""
"","","","","","psychophysics","25","505432","0.0-7.0-0.0-0.7","1062","","arrowright","","","","","","","","","","","","","key","arrowright","4.16673427991877","853.3333333333334","476","arrowleft","false","../../test_img/26.png","生人","prac_matching_task","自我","[""<img src=\""../../test_img/26.png\"" width=150 style=\""vertical-align:middle\"">---自我"",""<img src=\""../../test_img/22.png\"" width=150 style=\""vertical-align:middle\"">---朋友"",""<img src=\""../../test_img/15.png\"" width=150 style=\""vertical-align:middle\"">---生人""]","","",""
"","","","","","html-keyboard-response","26","505742","0.0-7.0-0.0-1.7","null","<span style='color:red; font-size: 70px;'>错误! </span>","null","","","","","","","","","","","","","","","","","","","","","","","","","feedback_test","",""
"","","","","","psychophysics","27","507875","0.0-7.0-0.0-0.8","1128","","arrowright","","","","","","","","","","","","","key","arrowright","4.463522012578689","853.3333333333334","476","arrowright","true","../../test_img/26.png","自我","prac_matching_task","自我","[""<img src=\""../../test_img/26.png\"" width=150 style=\""vertical-align:middle\"">---自我"",""<img src=\""../../test_img/22.png\"" width=150 style=\""vertical-align:middle\"">---朋友"",""<img src=\""../../test_img/15.png\"" width=150 style=\""vertical-align:middle\"">---生人""]","","",""
"","","","","","html-keyboard-response","28","508189","0.0-7.0-0.0-1.8","null","<span style='color:GreenYellow; font-size: 70px;'>正确! </span>","null","","","","","","","","","","","","","","","","","","","","","","","","","feedback_test","",""
"","","","","","psychophysics","29","510031","0.0-7.0-0.0-0.9","840","","arrowright","","","","","","","","","","","","","key","arrowright","4.166666666666667","853.3333333333334","476","arrowright","true","../../test_img/26.png","自我","prac_matching_task","自我","[""<img src=\""../../test_img/26.png\"" width=150 style=\""vertical-align:middle\"">---自我"",""<img src=\""../../test_img/22.png\"" width=150 style=\""vertical-align:middle\"">---朋友"",""<img src=\""../../test_img/15.png\"" width=150 style=\""vertical-align:middle\"">---生人""]","","",""
"","","","","","html-keyboard-response","30","510346","0.0-7.0-0.0-1.9","null","<span style='color:GreenYellow; font-size: 70px;'>正确! </span>","null","","","","","","","","","","","","","","","","","","","","","","","","","feedback_test","",""
"","","","","","psychophysics","31","512208","0.0-7.0-0.0-0.10","860","","arrowright","","","","","","","","","","","","","key","arrowright","4.185360360360203","853.3333333333334","476","arrowright","true","../../test_img/15.png","生人","prac_matching_task","生人","[""<img src=\""../../test_img/26.png\"" width=150 style=\""vertical-align:middle\"">---自我"",""<img src=\""../../test_img/22.png\"" width=150 style=\""vertical-align:middle\"">---朋友"",""<img src=\""../../test_img/15.png\"" width=150 style=\""vertical-align:middle\"">---生人""]","","",""
"","","","","","html-keyboard-response","32","512516","0.0-7.0-0.0-1.10","null","<span style='color:GreenYellow; font-size: 70px;'>正确! </span>","null","","","","","","","","","","","","","","","","","","","","","","","","","feedback_test","",""
"","","","","","psychophysics","33","514647","0.0-7.0-0.0-0.11","1127","","arrowright","","","","","","","","","","","","","key","arrowright","4.174656188605153","853.3333333333334","476","arrowleft","false","../../test_img/15.png","朋友","prac_matching_task","生人","[""<img src=\""../../test_img/26.png\"" width=150 style=\""vertical-align:middle\"">---自我"",""<img src=\""../../test_img/22.png\"" width=150 style=\""vertical-align:middle\"">---朋友"",""<img src=\""../../test_img/15.png\"" width=150 style=\""vertical-align:middle\"">---生人""]","","",""
"","","","","","html-keyboard-response","34","514953","0.0-7.0-0.0-1.11","null","<span style='color:red; font-size: 70px;'>错误! </span>","null","","","","","","","","","","","","","","","","","","","","","","","","","feedback_test","",""
"","","","","","psychophysics","35","516831","0.0-7.0-0.0-0.12","877","","arrowleft","","","","","","","","","","","","","key","arrowleft","4.175892857142961","853.3333333333334","476","arrowleft","true","../../test_img/26.png","朋友","prac_matching_task","自我","[""<img src=\""../../test_img/26.png\"" width=150 style=\""vertical-align:middle\"">---自我"",""<img src=\""../../test_img/22.png\"" width=150 style=\""vertical-align:middle\"">---朋友"",""<img src=\""../../test_img/15.png\"" width=150 style=\""vertical-align:middle\"">---生人""]","","",""
"","","","","","html-keyboard-response","36","517135","0.0-7.0-0.0-1.12","null","<span style='color:GreenYellow; font-size: 70px;'>正确! </span>","null","","","","","","","","","","","","","","","","","","","","","","","","","feedback_test","",""
"","","","","","psychophysics","37","519160","0.0-7.0-0.0-0.13","1023","","arrowleft","","","","","","","","","","","","","key","arrowleft","4.190852390852245","853.3333333333334","476","arrowright","false","../../test_img/22.png","朋友","prac_matching_task","朋友","[""<img src=\""../../test_img/26.png\"" width=150 style=\""vertical-align:middle\"">---自我"",""<img src=\""../../test_img/22.png\"" width=150 style=\""vertical-align:middle\"">---朋友"",""<img src=\""../../test_img/15.png\"" width=150 style=\""vertical-align:middle\"">---生人""]","","",""
"","","","","","html-keyboard-response","38","519470","0.0-7.0-0.0-1.13","null","<span style='color:red; font-size: 70px;'>错误! </span>","null","","","","","","","","","","","","","","","","","","","","","","","","","feedback_test","",""
"","","","","","psychophysics","39","521279","0.0-7.0-0.0-0.14","808","","arrowleft","","","","","","","","","","","","","key","arrowleft","4.166512702078468","853.3333333333334","476","arrowleft","true","../../test_img/15.png","自我","prac_matching_task","生人","[""<img src=\""../../test_img/26.png\"" width=150 style=\""vertical-align:middle\"">---自我"",""<img src=\""../../test_img/22.png\"" width=150 style=\""vertical-align:middle\"">---朋友"",""<img src=\""../../test_img/15.png\"" width=150 style=\""vertical-align:middle\"">---生人""]","","",""
"","","","","","html-keyboard-response","40","521591","0.0-7.0-0.0-1.14","null","<span style='color:GreenYellow; font-size: 70px;'>正确! </span>","null","","","","","","","","","","","","","","","","","","","","","","","","","feedback_test","",""
"","","","","","psychophysics","41","523239","0.0-7.0-0.0-0.15","643","","arrowright","","","","","","","","","","","","","key","arrowright","4.166751269035415","853.3333333333334","476","arrowright","true","../../test_img/22.png","朋友","prac_matching_task","朋友","[""<img src=\""../../test_img/26.png\"" width=150 style=\""vertical-align:middle\"">---自我"",""<img src=\""../../test_img/22.png\"" width=150 style=\""vertical-align:middle\"">---朋友"",""<img src=\""../../test_img/15.png\"" width=150 style=\""vertical-align:middle\"">---生人""]","","",""
"","","","","","html-keyboard-response","42","523543","0.0-7.0-0.0-1.15","null","<span style='color:GreenYellow; font-size: 70px;'>正确! </span>","null","","","","","","","","","","","","","","","","","","","","","","","","","feedback_test","",""
"","","","","","psychophysics","43","525215","0.0-7.0-0.0-0.16","670","","arrowright","","","","","","","","","","","","","key","arrowright","4.166749999999883","853.3333333333334","476","arrowright","true","../../test_img/15.png","生人","prac_matching_task","生人","[""<img src=\""../../test_img/26.png\"" width=150 style=\""vertical-align:middle\"">---自我"",""<img src=\""../../test_img/22.png\"" width=150 style=\""vertical-align:middle\"">---朋友"",""<img src=\""../../test_img/15.png\"" width=150 style=\""vertical-align:middle\"">---生人""]","","",""
"","","","","","html-keyboard-response","44","525516","0.0-7.0-0.0-1.16","null","<span style='color:GreenYellow; font-size: 70px;'>正确! </span>","null","","","","","","","","","","","","","","","","","","","","","","","","","feedback_test","",""
"","","","","","psychophysics","45","527798","0.0-7.0-0.0-0.17","1279","","arrowleft","","","","","","","","","","","","","key","arrowleft","4.174128440367015","853.3333333333334","476","arrowleft","true","../../test_img/15.png","朋友","prac_matching_task","生人","[""<img src=\""../../test_img/26.png\"" width=150 style=\""vertical-align:middle\"">---自我"",""<img src=\""../../test_img/22.png\"" width=150 style=\""vertical-align:middle\"">---朋友"",""<img src=\""../../test_img/15.png\"" width=150 style=\""vertical-align:middle\"">---生人""]","","",""
"","","","","","html-keyboard-response","46","528103","0.0-7.0-0.0-1.17","null","<span style='color:GreenYellow; font-size: 70px;'>正确! </span>","null","","","","","","","","","","","","","","","","","","","","","","","","","feedback_test","",""
"","","","","","psychophysics","47","529970","0.0-7.0-0.0-0.18","866","","arrowright","","","","","","","","","","","","","key","arrowright","4.185393258426966","853.3333333333334","476","arrowright","true","../../test_img/15.png","生人","prac_matching_task","生人","[""<img src=\""../../test_img/26.png\"" width=150 style=\""vertical-align:middle\"">---自我"",""<img src=\""../../test_img/22.png\"" width=150 style=\""vertical-align:middle\"">---朋友"",""<img src=\""../../test_img/15.png\"" width=150 style=\""vertical-align:middle\"">---生人""]","","",""
"","","","","","html-keyboard-response","48","530285","0.0-7.0-0.0-1.18","null","<span style='color:GreenYellow; font-size: 70px;'>正确! </span>","null","","","","","","","","","","","","","","","","","","","","","","","","","feedback_test","",""
"","","","","","psychophysics","49","532120","0.0-7.0-0.0-0.19","834","","arrowleft","","","","","","","","","","","","","key","arrowleft","4.212702078522155","853.3333333333334","476","arrowleft","true","../../test_img/22.png","自我","prac_matching_task","朋友","[""<img src=\""../../test_img/26.png\"" width=150 style=\""vertical-align:middle\"">---自我"",""<img src=\""../../test_img/22.png\"" width=150 style=\""vertical-align:middle\"">---朋友"",""<img src=\""../../test_img/15.png\"" width=150 style=\""vertical-align:middle\"">---生人""]","","",""
"","","","","","html-keyboard-response","50","532423","0.0-7.0-0.0-1.19","null","<span style='color:GreenYellow; font-size: 70px;'>正确! </span>","null","","","","","","","","","","","","","","","","","","","","","","","","","feedback_test","",""
"","","","","","psychophysics","51","534607","0.0-7.0-0.0-0.20","1183","","arrowleft","","","","","","","","","","","","","key","arrowleft","4.17236084452984","853.3333333333334","476","arrowleft","true","../../test_img/22.png","生人","prac_matching_task","朋友","[""<img src=\""../../test_img/26.png\"" width=150 style=\""vertical-align:middle\"">---自我"",""<img src=\""../../test_img/22.png\"" width=150 style=\""vertical-align:middle\"">---朋友"",""<img src=\""../../test_img/15.png\"" width=150 style=\""vertical-align:middle\"">---生人""]","","",""
"","","","","","html-keyboard-response","52","534920","0.0-7.0-0.0-1.20","null","<span style='color:GreenYellow; font-size: 70px;'>正确! </span>","null","","","","","","","","","","","","","","","","","","","","","","","","","feedback_test","",""
"","","","","","psychophysics","53","536560","0.0-7.0-0.0-0.21","636","","arrowright","","","","","","","","","","","","","key","arrowright","4.177493606138167","853.3333333333334","476","arrowright","true","../../test_img/26.png","自我","prac_matching_task","自我","[""<img src=\""../../test_img/26.png\"" width=150 style=\""vertical-align:middle\"">---自我"",""<img src=\""../../test_img/22.png\"" width=150 style=\""vertical-align:middle\"">---朋友"",""<img src=\""../../test_img/15.png\"" width=150 style=\""vertical-align:middle\"">---生人""]","","",""
"","","","","","html-keyboard-response","54","536867","0.0-7.0-0.0-1.21","null","<span style='color:GreenYellow; font-size: 70px;'>正确! </span>","null","","","","","","","","","","","","","","","","","","","","","","","","","feedback_test","",""
"","","","","","psychophysics","55","538648","0.0-7.0-0.0-0.22","779","","arrowleft","","","","","","","","","","","","","key","arrowleft","4.256834532374045","853.3333333333334","476","arrowleft","true","../../test_img/26.png","生人","prac_matching_task","自我","[""<img src=\""../../test_img/26.png\"" width=150 style=\""vertical-align:middle\"">---自我"",""<img src=\""../../test_img/22.png\"" width=150 style=\""vertical-align:middle\"">---朋友"",""<img src=\""../../test_img/15.png\"" width=150 style=\""vertical-align:middle\"">---生人""]","","",""
"","","","","","html-keyboard-response","56","538955","0.0-7.0-0.0-1.22","null","<span style='color:GreenYellow; font-size: 70px;'>正确! </span>","null","","","","","","","","","","","","","","","","","","","","","","","","","feedback_test","",""
"","","","","","psychophysics","57","540617","0.0-7.0-0.0-0.23","660","","arrowright","","","","","","","","","","","","","key","arrowright","4.177078085642141","853.3333333333334","476","arrowright","true","../../test_img/26.png","自我","prac_matching_task","自我","[""<img src=\""../../test_img/26.png\"" width=150 style=\""vertical-align:middle\"">---自我"",""<img src=\""../../test_img/22.png\"" width=150 style=\""vertical-align:middle\"">---朋友"",""<img src=\""../../test_img/15.png\"" width=150 style=\""vertical-align:middle\"">---生人""]","","",""
"","","","","","html-keyboard-response","58","540925","0.0-7.0-0.0-1.23","null","<span style='color:GreenYellow; font-size: 70px;'>正确! </span>","null","","","","","","","","","","","","","","","","","","","","","","","","","feedback_test","",""
"","","","","","html-keyboard-response","59","545454","0.0-7.0-1.0-0.0","4528","<style>.context{color:white; font-size: 35px; line-height:40px}</style>                          <div><p class='context'>您正确回答了67% 的试次。</p ><p class='context'>您的平均反应时为846毫秒。</p >"," ","","","","","","","","","","","","","","","","","","","","","","","","","","",""
"","","","","","instructions","60","553633","0.0-7.0-1.0-1.0","8179","","","","","","","","","","","","","","[{""page_index"":0,""viewing_time"":1294},{""page_index"":1,""viewing_time"":1809},{""page_index"":2,""viewing_time"":4364},{""page_index"":3,""viewing_time"":711}]","","","","","","","","","","","","","","",""
"","","","","","psychophysics","61","555272","0.0-7.1-0.1-0.24","636","","arrowright","","","","","","","","","","","","","key","arrowright","4.166836734693937","853.3333333333334","476","arrowleft","false","../../test_img/26.png","朋友","prac_matching_task","自我","[""<img src=\""../../test_img/26.png\"" width=150 style=\""vertical-align:middle\"">---自我"",""<img src=\""../../test_img/22.png\"" width=150 style=\""vertical-align:middle\"">---朋友"",""<img src=\""../../test_img/15.png\"" width=150 style=\""vertical-align:middle\"">---生人""]","","",""
"","","","","","html-keyboard-response","62","555584","0.0-7.1-0.1-1.24","null","<span style='color:red; font-size: 70px;'>错误! </span>","null","","","","","","","","","","","","","","","","","","","","","","","","","feedback_test","",""
"","","","","","psychophysics","63","557186","0.0-7.1-0.1-0.25","599","","arrowright","","","","","","","","","","","","","key","arrowright","4.199736842105018","853.3333333333334","476","arrowright","true","../../test_img/26.png","自我","prac_matching_task","自我","[""<img src=\""../../test_img/26.png\"" width=150 style=\""vertical-align:middle\"">---自我"",""<img src=\""../../test_img/22.png\"" width=150 style=\""vertical-align:middle\"">---朋友"",""<img src=\""../../test_img/15.png\"" width=150 style=\""vertical-align:middle\"">---生人""]","","",""
"","","","","","html-keyboard-response","64","557497","0.0-7.1-0.1-1.25","null","<span style='color:GreenYellow; font-size: 70px;'>正确! </span>","null","","","","","","","","","","","","","","","","","","","","","","","","","feedback_test","",""
"","","","","","psychophysics","65","559119","0.0-7.1-0.1-0.26","621","","arrowleft","","","","","","","","","","","","","key","arrowleft","4.177519379844841","853.3333333333334","476","arrowleft","true","../../test_img/22.png","自我","prac_matching_task","朋友","[""<img src=\""../../test_img/26.png\"" width=150 style=\""vertical-align:middle\"">---自我"",""<img src=\""../../test_img/22.png\"" width=150 style=\""vertical-align:middle\"">---朋友"",""<img src=\""../../test_img/15.png\"" width=150 style=\""vertical-align:middle\"">---生人""]","","",""
"","","","","","html-keyboard-response","66","559431","0.0-7.1-0.1-1.26","null","<span style='color:GreenYellow; font-size: 70px;'>正确! </span>","null","","","","","","","","","","","","","","","","","","","","","","","","","feedback_test","",""
"","","","","","psychophysics","67","561393","0.0-7.1-0.1-0.27","960","","arrowleft","","","","","","","","","","","","","key","arrowleft","4.199354838709827","853.3333333333334","476","arrowleft","true","../../test_img/15.png","朋友","prac_matching_task","生人","[""<img src=\""../../test_img/26.png\"" width=150 style=\""vertical-align:middle\"">---自我"",""<img src=\""../../test_img/22.png\"" width=150 style=\""vertical-align:middle\"">---朋友"",""<img src=\""../../test_img/15.png\"" width=150 style=\""vertical-align:middle\"">---生人""]","","",""
"","","","","","html-keyboard-response","68","561699","0.0-7.1-0.1-1.27","null","<span style='color:GreenYellow; font-size: 70px;'>正确! </span>","null","","","","","","","","","","","","","","","","","","","","","","","","","feedback_test","",""
"","","","","","psychophysics","69","563632","0.0-7.1-0.1-0.28","930","","arrowleft","","","","","","","","","","","","","key","arrowleft","4.230701754385863","853.3333333333334","476","arrowleft","true","../../test_img/22.png","生人","prac_matching_task","朋友","[""<img src=\""../../test_img/26.png\"" width=150 style=\""vertical-align:middle\"">---自我"",""<img src=\""../../test_img/22.png\"" width=150 style=\""vertical-align:middle\"">---朋友"",""<img src=\""../../test_img/15.png\"" width=150 style=\""vertical-align:middle\"">---生人""]","","",""
"","","","","","html-keyboard-response","70","563947","0.0-7.1-0.1-1.28","null","<span style='color:GreenYellow; font-size: 70px;'>正确! </span>","null","","","","","","","","","","","","","","","","","","","","","","","","","feedback_test","",""
"","","","","","psychophysics","71","565639","0.0-7.1-0.1-0.29","691","","arrowright","","","","","","","","","","","","","key","arrowright","4.197512437810714","853.3333333333334","476","arrowright","true","../../test_img/22.png","朋友","prac_matching_task","朋友","[""<img src=\""../../test_img/26.png\"" width=150 style=\""vertical-align:middle\"">---自我"",""<img src=\""../../test_img/22.png\"" width=150 style=\""vertical-align:middle\"">---朋友"",""<img src=\""../../test_img/15.png\"" width=150 style=\""vertical-align:middle\"">---生人""]","","",""
"","","","","","html-keyboard-response","72","565943","0.0-7.1-0.1-1.29","null","<span style='color:GreenYellow; font-size: 70px;'>正确! </span>","null","","","","","","","","","","","","","","","","","","","","","","","","","feedback_test","",""
"","","","","","psychophysics","73","567615","0.0-7.1-0.1-0.30","670","","arrowleft","","","","","","","","","","","","","key","arrowleft","4.259743589743709","853.3333333333334","476","arrowleft","true","../../test_img/26.png","生人","prac_matching_task","自我","[""<img src=\""../../test_img/26.png\"" width=150 style=\""vertical-align:middle\"">---自我"",""<img src=\""../../test_img/22.png\"" width=150 style=\""vertical-align:middle\"">---朋友"",""<img src=\""../../test_img/15.png\"" width=150 style=\""vertical-align:middle\"">---生人""]","","",""
"","","","","","html-keyboard-response","74","567917","0.0-7.1-0.1-1.30","null","<span style='color:GreenYellow; font-size: 70px;'>正确! </span>","null","","","","","","","","","","","","","","","","","","","","","","","","","feedback_test","",""
"","","","","","psychophysics","75","569871","0.0-7.1-0.1-0.31","951","","arrowleft","","","","","","","","","","","","","key","arrowleft","4.202586206896552","853.3333333333334","476","arrowright","false","../../test_img/15.png","生人","prac_matching_task","生人","[""<img src=\""../../test_img/26.png\"" width=150 style=\""vertical-align:middle\"">---自我"",""<img src=\""../../test_img/22.png\"" width=150 style=\""vertical-align:middle\"">---朋友"",""<img src=\""../../test_img/15.png\"" width=150 style=\""vertical-align:middle\"">---生人""]","","",""
"","","","","","html-keyboard-response","76","570187","0.0-7.1-0.1-1.31","null","<span style='color:red; font-size: 70px;'>错误! </span>","null","","","","","","","","","","","","","","","","","","","","","","","","","feedback_test","",""
"","","","","","psychophysics","77","571871","0.0-7.1-0.1-0.32","681","","arrowleft","","","","","","","","","","","","","key","arrowleft","4.16674937965249","853.3333333333334","476","arrowleft","true","../../test_img/15.png","自我","prac_matching_task","生人","[""<img src=\""../../test_img/26.png\"" width=150 style=\""vertical-align:middle\"">---自我"",""<img src=\""../../test_img/22.png\"" width=150 style=\""vertical-align:middle\"">---朋友"",""<img src=\""../../test_img/15.png\"" width=150 style=\""vertical-align:middle\"">---生人""]","","",""
"","","","","","html-keyboard-response","78","572183","0.0-7.1-0.1-1.32","null","<span style='color:GreenYellow; font-size: 70px;'>正确! </span>","null","","","","","","","","","","","","","","","","","","","","","","","","","feedback_test","",""
"","","","","","psychophysics","79","573840","0.0-7.1-0.1-0.33","653","","arrowright","","","","","","","","","","","","","key","arrowright","4.166666666666667","853.3333333333334","476","arrowright","true","../../test_img/22.png","朋友","prac_matching_task","朋友","[""<img src=\""../../test_img/26.png\"" width=150 style=\""vertical-align:middle\"">---自我"",""<img src=\""../../test_img/22.png\"" width=150 style=\""vertical-align:middle\"">---朋友"",""<img src=\""../../test_img/15.png\"" width=150 style=\""vertical-align:middle\"">---生人""]","","",""
"","","","","","html-keyboard-response","80","574153","0.0-7.1-0.1-1.33","null","<span style='color:GreenYellow; font-size: 70px;'>正确! </span>","null","","","","","","","","","","","","","","","","","","","","","","","","","feedback_test","",""
"","","","","","psychophysics","81","576031","0.0-7.1-0.1-0.34","876","","arrowright","","","","","","","","","","","","","key","arrowright","4.166815144766199","853.3333333333334","476","arrowright","true","../../test_img/15.png","生人","prac_matching_task","生人","[""<img src=\""../../test_img/26.png\"" width=150 style=\""vertical-align:middle\"">---自我"",""<img src=\""../../test_img/22.png\"" width=150 style=\""vertical-align:middle\"">---朋友"",""<img src=\""../../test_img/15.png\"" width=150 style=\""vertical-align:middle\"">---生人""]","","",""
"","","","","","html-keyboard-response","82","576340","0.0-7.1-0.1-1.34","null","<span style='color:GreenYellow; font-size: 70px;'>正确! </span>","null","","","","","","","","","","","","","","","","","","","","","","","","","feedback_test","",""
"","","","","","psychophysics","83","578031","0.0-7.1-0.1-0.35","690","","arrowright","","","","","","","","","","","","","key","arrowright","4.166336633663251","853.3333333333334","476","arrowright","true","../../test_img/26.png","自我","prac_matching_task","自我","[""<img src=\""../../test_img/26.png\"" width=150 style=\""vertical-align:middle\"">---自我"",""<img src=\""../../test_img/22.png\"" width=150 style=\""vertical-align:middle\"">---朋友"",""<img src=\""../../test_img/15.png\"" width=150 style=\""vertical-align:middle\"">---生人""]","","",""
"","","","","","html-keyboard-response","84","578333","0.0-7.1-0.1-1.35","null","<span style='color:GreenYellow; font-size: 70px;'>正确! </span>","null","","","","","","","","","","","","","","","","","","","","","","","","","feedback_test","",""
"","","","","","psychophysics","85","580031","0.0-7.1-0.1-0.36","696","","arrowleft","","","","","","","","","","","","","key","arrowleft","4.197766749379537","853.3333333333334","476","arrowleft","true","../../test_img/22.png","自我","prac_matching_task","朋友","[""<img src=\""../../test_img/26.png\"" width=150 style=\""vertical-align:middle\"">---自我"",""<img src=\""../../test_img/22.png\"" width=150 style=\""vertical-align:middle\"">---朋友"",""<img src=\""../../test_img/15.png\"" width=150 style=\""vertical-align:middle\"">---生人""]","","",""
"","","","","","html-keyboard-response","86","580344","0.0-7.1-0.1-1.36","null","<span style='color:GreenYellow; font-size: 70px;'>正确! </span>","null","","","","","","","","","","","","","","","","","","","","","","","","","feedback_test","",""
"","","","","","psychophysics","87","581983","0.0-7.1-0.1-0.37","638","","arrowright","","","","","","","","","","","","","key","arrowright","4.16658163265318","853.3333333333334","476","arrowright","true","../../test_img/26.png","自我","prac_matching_task","自我","[""<img src=\""../../test_img/26.png\"" width=150 style=\""vertical-align:middle\"">---自我"",""<img src=\""../../test_img/22.png\"" width=150 style=\""vertical-align:middle\"">---朋友"",""<img src=\""../../test_img/15.png\"" width=150 style=\""vertical-align:middle\"">---生人""]","","",""
"","","","","","html-keyboard-response","88","582294","0.0-7.1-0.1-1.37","null","<span style='color:GreenYellow; font-size: 70px;'>正确! </span>","null","","","","","","","","","","","","","","","","","","","","","","","","","feedback_test","",""
"","","","","","psychophysics","89","584090","0.0-7.1-0.1-0.38","795","","arrowleft","","","","","","","","","","","","","key","arrowleft","4.1766355140186375","853.3333333333334","476","arrowleft","true","../../test_img/26.png","生人","prac_matching_task","自我","[""<img src=\""../../test_img/26.png\"" width=150 style=\""vertical-align:middle\"">---自我"",""<img src=\""../../test_img/22.png\"" width=150 style=\""vertical-align:middle\"">---朋友"",""<img src=\""../../test_img/15.png\"" width=150 style=\""vertical-align:middle\"">---生人""]","","",""
"","","","","","html-keyboard-response","90","584404","0.0-7.1-0.1-1.38","null","<span style='color:GreenYellow; font-size: 70px;'>正确! </span>","null","","","","","","","","","","","","","","","","","","","","","","","","","feedback_test","",""
"","","","","","psychophysics","91","586215","0.0-7.1-0.1-0.39","808","","arrowleft","","","","","","","","","","","","","key","arrowleft","4.215420560747555","853.3333333333334","476","arrowleft","true","../../test_img/15.png","自我","prac_matching_task","生人","[""<img src=\""../../test_img/26.png\"" width=150 style=\""vertical-align:middle\"">---自我"",""<img src=\""../../test_img/22.png\"" width=150 style=\""vertical-align:middle\"">---朋友"",""<img src=\""../../test_img/15.png\"" width=150 style=\""vertical-align:middle\"">---生人""]","","",""
"","","","","","html-keyboard-response","92","586528","0.0-7.1-0.1-1.39","null","<span style='color:GreenYellow; font-size: 70px;'>正确! </span>","null","","","","","","","","","","","","","","","","","","","","","","","","","feedback_test","",""
"","","","","","psychophysics","93","588239","0.0-7.1-0.1-0.40","707","","arrowright","","","","","","","","","","","","","key","arrowright","4.166748166259055","853.3333333333334","476","arrowright","true","../../test_img/22.png","朋友","prac_matching_task","朋友","[""<img src=\""../../test_img/26.png\"" width=150 style=\""vertical-align:middle\"">---自我"",""<img src=\""../../test_img/22.png\"" width=150 style=\""vertical-align:middle\"">---朋友"",""<img src=\""../../test_img/15.png\"" width=150 style=\""vertical-align:middle\"">---生人""]","","",""
"","","","","","html-keyboard-response","94","588550","0.0-7.1-0.1-1.40","null","<span style='color:GreenYellow; font-size: 70px;'>正确! </span>","null","","","","","","","","","","","","","","","","","","","","","","","","","feedback_test","",""
"","","","","","psychophysics","95","590223","0.0-7.1-0.1-0.41","670","","arrowright","","","","","","","","","","","","","key","arrowright","4.1664999999999415","853.3333333333334","476","arrowright","true","../../test_img/26.png","自我","prac_matching_task","自我","[""<img src=\""../../test_img/26.png\"" width=150 style=\""vertical-align:middle\"">---自我"",""<img src=\""../../test_img/22.png\"" width=150 style=\""vertical-align:middle\"">---朋友"",""<img src=\""../../test_img/15.png\"" width=150 style=\""vertical-align:middle\"">---生人""]","","",""
"","","","","","html-keyboard-response","96","590527","0.0-7.1-0.1-1.41","null","<span style='color:GreenYellow; font-size: 70px;'>正确! </span>","null","","","","","","","","","","","","","","","","","","","","","","","","","feedback_test","",""
"","","","","","psychophysics","97","592384","0.0-7.1-0.1-0.42","857","","arrowleft","","","","","","","","","","","","","key","arrowleft","4.166666666666667","853.3333333333334","476","arrowleft","true","../../test_img/22.png","生人","prac_matching_task","朋友","[""<img src=\""../../test_img/26.png\"" width=150 style=\""vertical-align:middle\"">---自我"",""<img src=\""../../test_img/22.png\"" width=150 style=\""vertical-align:middle\"">---朋友"",""<img src=\""../../test_img/15.png\"" width=150 style=\""vertical-align:middle\"">---生人""]","","",""
"","","","","","html-keyboard-response","98","592687","0.0-7.1-0.1-1.42","null","<span style='color:GreenYellow; font-size: 70px;'>正确! </span>","null","","","","","","","","","","","","","","","","","","","","","","","","","feedback_test","",""
"","","","","","psychophysics","99","594416","0.0-7.1-0.1-0.43","725","","arrowright","","","","","","","","","","","","","key","arrowright","4.176755447941889","853.3333333333334","476","arrowright","true","../../test_img/22.png","朋友","prac_matching_task","朋友","[""<img src=\""../../test_img/26.png\"" width=150 style=\""vertical-align:middle\"">---自我"",""<img src=\""../../test_img/22.png\"" width=150 style=\""vertical-align:middle\"">---朋友"",""<img src=\""../../test_img/15.png\"" width=150 style=\""vertical-align:middle\"">---生人""]","","",""
"","","","","","html-keyboard-response","100","594732","0.0-7.1-0.1-1.43","null","<span style='color:GreenYellow; font-size: 70px;'>正确! </span>","null","","","","","","","","","","","","","","","","","","","","","","","","","feedback_test","",""
"","","","","","psychophysics","101","596455","0.0-7.1-0.1-0.44","723","","arrowleft","","","","","","","","","","","","","key","arrowleft","4.166990291261967","853.3333333333334","476","arrowright","false","../../test_img/15.png","生人","prac_matching_task","生人","[""<img src=\""../../test_img/26.png\"" width=150 style=\""vertical-align:middle\"">---自我"",""<img src=\""../../test_img/22.png\"" width=150 style=\""vertical-align:middle\"">---朋友"",""<img src=\""../../test_img/15.png\"" width=150 style=\""vertical-align:middle\"">---生人""]","","",""
"","","","","","html-keyboard-response","102","596768","0.0-7.1-0.1-1.44","null","<span style='color:red; font-size: 70px;'>错误! </span>","null","","","","","","","","","","","","","","","","","","","","","","","","","feedback_test","",""
"","","","","","psychophysics","103","598560","0.0-7.1-0.1-0.45","791","","arrowright","","","","","","","","","","","","","key","arrowright","4.163317757009128","853.3333333333334","476","arrowright","true","../../test_img/15.png","生人","prac_matching_task","生人","[""<img src=\""../../test_img/26.png\"" width=150 style=\""vertical-align:middle\"">---自我"",""<img src=\""../../test_img/22.png\"" width=150 style=\""vertical-align:middle\"">---朋友"",""<img src=\""../../test_img/15.png\"" width=150 style=\""vertical-align:middle\"">---生人""]","","",""
"","","","","","html-keyboard-response","104","598868","0.0-7.1-0.1-1.45","null","<span style='color:GreenYellow; font-size: 70px;'>正确! </span>","null","","","","","","","","","","","","","","","","","","","","","","","","","feedback_test","",""
"","","","","","psychophysics","105","600559","0.0-7.1-0.1-0.46","690","","arrowleft","","","","","","","","","","","","","key","arrowleft","4.166831683168087","853.3333333333334","476","arrowleft","true","../../test_img/15.png","朋友","prac_matching_task","生人","[""<img src=\""../../test_img/26.png\"" width=150 style=\""vertical-align:middle\"">---自我"",""<img src=\""../../test_img/22.png\"" width=150 style=\""vertical-align:middle\"">---朋友"",""<img src=\""../../test_img/15.png\"" width=150 style=\""vertical-align:middle\"">---生人""]","","",""
"","","","","","html-keyboard-response","106","600861","0.0-7.1-0.1-1.46","null","<span style='color:GreenYellow; font-size: 70px;'>正确! </span>","null","","","","","","","","","","","","","","","","","","","","","","","","","feedback_test","",""
"","","","","","psychophysics","107","602584","0.0-7.1-0.1-0.47","719","","arrowleft","","","","","","","","","","","","","key","arrowleft","4.166990291261967","853.3333333333334","476","arrowleft","true","../../test_img/26.png","朋友","prac_matching_task","自我","[""<img src=\""../../test_img/26.png\"" width=150 style=\""vertical-align:middle\"">---自我"",""<img src=\""../../test_img/22.png\"" width=150 style=\""vertical-align:middle\"">---朋友"",""<img src=\""../../test_img/15.png\"" width=150 style=\""vertical-align:middle\"">---生人""]","","",""
"","","","","","html-keyboard-response","108","602893","0.0-7.1-0.1-1.47","null","<span style='color:GreenYellow; font-size: 70px;'>正确! </span>","null","","","","","","","","","","","","","","","","","","","","","","","","","feedback_test","",""
"","","","","","html-keyboard-response","109","606999","0.0-8.0","4105","<style>.context{color:white; font-size: 35px; line-height:40px}</style>                          <div><p class='context'>您正确回答了88% 的试次。</p ><p class='context'>您的平均反应时为737毫秒。</p ><p class='context'>恭喜您完成练习。按任意键进入知觉匹配任务正式实验。</p ><p style = 'color:lightgreen; font-size: 35px;' >正式实验与练习要求相同，请您尽可能又快又准地进行按键反应</p><p class='footer' style='font-size: 22px; line-height:40px;'>请将您右手的<span style='color: lightgreen;'>食指与无名指</span>放在电脑键盘的相应键位上进行按键。</p >"," ","","","","","","","","","","","","","","","","","","","","","","","","","","",""
"","","","","","psychophysics","110","608840","0.0-9.0-0.0-0.0-0.0-0.0","838","","arrowright","","","","","","","","","","","","","key","arrowright","4.1665909090907505","853.3333333333334","476","arrowright","true","../../test_img/22.png","朋友","matching_task","朋友","[""<img src=\""../../test_img/26.png\"" width=150 style=\""vertical-align:middle\"">---自我"",""<img src=\""../../test_img/22.png\"" width=150 style=\""vertical-align:middle\"">---朋友"",""<img src=\""../../test_img/15.png\"" width=150 style=\""vertical-align:middle\"">---生人""]","","",""
"","","","","","html-keyboard-response","111","609351","0.0-9.0-0.0-0.0-0.0-1.0","null","<span style='color:GreenYellow; font-size: 70px;'>正确! </span>","null","","","","","","","","","","","","","","","","","","","","","","","","","feedback_test","",""
"","","","","","psychophysics","112","611000","0.0-9.0-0.0-0.0-0.0-0.1","648","","arrowright","","","","","","","","","","","","","key","arrowright","4.175063613231375","853.3333333333334","476","arrowright","true","../../test_img/26.png","自我","matching_task","自我","[""<img src=\""../../test_img/26.png\"" width=150 style=\""vertical-align:middle\"">---自我"",""<img src=\""../../test_img/22.png\"" width=150 style=\""vertical-align:middle\"">---朋友"",""<img src=\""../../test_img/15.png\"" width=150 style=\""vertical-align:middle\"">---生人""]","","",""
"","","","","","html-keyboard-response","113","611506","0.0-9.0-0.0-0.0-0.0-1.1","null","<span style='color:GreenYellow; font-size: 70px;'>正确! </span>","null","","","","","","","","","","","","","","","","","","","","","","","","","feedback_test","",""
"","","","","","psychophysics","114","613160","0.0-9.0-0.0-0.0-0.0-0.2","653","","arrowright","","","","","","","","","","","","","key","arrowright","4.166835443038034","853.3333333333334","476","arrowright","true","../../test_img/22.png","朋友","matching_task","朋友","[""<img src=\""../../test_img/26.png\"" width=150 style=\""vertical-align:middle\"">---自我"",""<img src=\""../../test_img/22.png\"" width=150 style=\""vertical-align:middle\"">---朋友"",""<img src=\""../../test_img/15.png\"" width=150 style=\""vertical-align:middle\"">---生人""]","","",""
"","","","","","html-keyboard-response","115","613673","0.0-9.0-0.0-0.0-0.0-1.2","null","<span style='color:GreenYellow; font-size: 70px;'>正确! </span>","null","","","","","","","","","","","","","","","","","","","","","","","","","feedback_test","",""
"","","","","","psychophysics","116","615287","0.0-9.0-0.0-0.0-0.0-0.3","610","","arrowleft","","","","","","","","","","","","","key","arrowleft","4.166839378238101","853.3333333333334","476","arrowleft","true","../../test_img/26.png","生人","matching_task","自我","[""<img src=\""../../test_img/26.png\"" width=150 style=\""vertical-align:middle\"">---自我"",""<img src=\""../../test_img/22.png\"" width=150 style=\""vertical-align:middle\"">---朋友"",""<img src=\""../../test_img/15.png\"" width=150 style=\""vertical-align:middle\"">---生人""]","","",""
"","","","","","html-keyboard-response","117","615794","0.0-9.0-0.0-0.0-0.0-1.3","null","<span style='color:GreenYellow; font-size: 70px;'>正确! </span>","null","","","","","","","","","","","","","","","","","","","","","","","","","feedback_test","",""
"","","","","","psychophysics","118","617705","0.0-9.0-0.0-0.0-0.0-0.4","910","","arrowleft","","","","","","","","","","","","","key","arrowleft","4.175657894736791","853.3333333333334","476","arrowleft","true","../../test_img/22.png","生人","matching_task","朋友","[""<img src=\""../../test_img/26.png\"" width=150 style=\""vertical-align:middle\"">---自我"",""<img src=\""../../test_img/22.png\"" width=150 style=\""vertical-align:middle\"">---朋友"",""<img src=\""../../test_img/15.png\"" width=150 style=\""vertical-align:middle\"">---生人""]","","",""
"","","","","","html-keyboard-response","119","618208","0.0-9.0-0.0-0.0-0.0-1.4","null","<span style='color:GreenYellow; font-size: 70px;'>正确! </span>","null","","","","","","","","","","","","","","","","","","","","","","","","","feedback_test","",""
"","","","","","psychophysics","120","620088","0.0-9.0-0.0-0.0-0.0-0.5","878","","arrowright","","","","","","","","","","","","","key","arrowright","4.166666666666667","853.3333333333334","476","arrowleft","false","../../test_img/15.png","朋友","matching_task","生人","[""<img src=\""../../test_img/26.png\"" width=150 style=\""vertical-align:middle\"">---自我"",""<img src=\""../../test_img/22.png\"" width=150 style=\""vertical-align:middle\"">---朋友"",""<img src=\""../../test_img/15.png\"" width=150 style=\""vertical-align:middle\"">---生人""]","","",""
"","","","","","html-keyboard-response","121","620597","0.0-9.0-0.0-0.0-0.0-1.5","null","<span style='color:red; font-size: 70px;'>错误! </span>","null","","","","","","","","","","","","","","","","","","","","","","","","","feedback_test","",""
"","","","","","psychophysics","122","622143","0.0-9.0-0.0-0.0-0.0-0.6","545","","arrowright","","","","","","","","","","","","","key","arrowright","4.163956639566396","853.3333333333334","476","arrowright","true","../../test_img/26.png","自我","matching_task","自我","[""<img src=\""../../test_img/26.png\"" width=150 style=\""vertical-align:middle\"">---自我"",""<img src=\""../../test_img/22.png\"" width=150 style=\""vertical-align:middle\"">---朋友"",""<img src=\""../../test_img/15.png\"" width=150 style=\""vertical-align:middle\"">---生人""]","","",""
"","","","","","html-keyboard-response","123","622658","0.0-9.0-0.0-0.0-0.0-1.6","null","<span style='color:GreenYellow; font-size: 70px;'>正确! </span>","null","","","","","","","","","","","","","","","","","","","","","","","","","feedback_test","",""
"","","","","","psychophysics","124","624776","0.0-9.0-0.0-0.0-0.0-0.7","1116","","arrowright","","","","","","","","","","","","","key","arrowright","4.174901185770751","853.3333333333334","476","arrowright","true","../../test_img/15.png","生人","matching_task","生人","[""<img src=\""../../test_img/26.png\"" width=150 style=\""vertical-align:middle\"">---自我"",""<img src=\""../../test_img/22.png\"" width=150 style=\""vertical-align:middle\"">---朋友"",""<img src=\""../../test_img/15.png\"" width=150 style=\""vertical-align:middle\"">---生人""]","","",""
"","","","","","html-keyboard-response","125","625278","0.0-9.0-0.0-0.0-0.0-1.7","null","<span style='color:GreenYellow; font-size: 70px;'>正确! </span>","null","","","","","","","","","","","","","","","","","","","","","","","","","feedback_test","",""
"","","","","","psychophysics","126","626959","0.0-9.0-0.0-0.0-0.0-0.8","679","","arrowleft","","","","","","","","","","","","","key","arrowleft","4.1669154228855145","853.3333333333334","476","arrowleft","true","../../test_img/26.png","朋友","matching_task","自我","[""<img src=\""../../test_img/26.png\"" width=150 style=\""vertical-align:middle\"">---自我"",""<img src=\""../../test_img/22.png\"" width=150 style=\""vertical-align:middle\"">---朋友"",""<img src=\""../../test_img/15.png\"" width=150 style=\""vertical-align:middle\"">---生人""]","","",""
"","","","","","html-keyboard-response","127","627464","0.0-9.0-0.0-0.0-0.0-1.8","null","<span style='color:GreenYellow; font-size: 70px;'>正确! </span>","null","","","","","","","","","","","","","","","","","","","","","","","","","feedback_test","",""
"","","","","","psychophysics","128","629130","0.0-9.0-0.0-0.0-0.0-0.9","664","","arrowleft","","","","","","","","","","","","","key","arrowleft","4.188131313131313","853.3333333333334","476","arrowleft","true","../../test_img/22.png","自我","matching_task","朋友","[""<img src=\""../../test_img/26.png\"" width=150 style=\""vertical-align:middle\"">---自我"",""<img src=\""../../test_img/22.png\"" width=150 style=\""vertical-align:middle\"">---朋友"",""<img src=\""../../test_img/15.png\"" width=150 style=\""vertical-align:middle\"">---生人""]","","",""
"","","","","","html-keyboard-response","129","629635","0.0-9.0-0.0-0.0-0.0-1.9","null","<span style='color:GreenYellow; font-size: 70px;'>正确! </span>","null","","","","","","","","","","","","","","","","","","","","","","","","","feedback_test","",""
"","","","","","psychophysics","130","631401","0.0-9.0-0.0-0.0-0.0-0.10","765","","arrowright","","","","","","","","","","","","","key","arrowright","4.257384987893575","853.3333333333334","476","arrowright","true","../../test_img/15.png","生人","matching_task","生人","[""<img src=\""../../test_img/26.png\"" width=150 style=\""vertical-align:middle\"">---自我"",""<img src=\""../../test_img/22.png\"" width=150 style=\""vertical-align:middle\"">---朋友"",""<img src=\""../../test_img/15.png\"" width=150 style=\""vertical-align:middle\"">---生人""]","","",""
"","","","","","html-keyboard-response","131","631904","0.0-9.0-0.0-0.0-0.0-1.10","null","<span style='color:GreenYellow; font-size: 70px;'>正确! </span>","null","","","","","","","","","","","","","","","","","","","","","","","","","feedback_test","",""
"","","","","","psychophysics","132","633488","0.0-9.0-0.0-0.0-0.0-0.11","582","","arrowleft","","","","","","","","","","","","","key","arrowleft","4.2111999999998755","853.3333333333334","476","arrowleft","true","../../test_img/15.png","自我","matching_task","生人","[""<img src=\""../../test_img/26.png\"" width=150 style=\""vertical-align:middle\"">---自我"",""<img src=\""../../test_img/22.png\"" width=150 style=\""vertical-align:middle\"">---朋友"",""<img src=\""../../test_img/15.png\"" width=150 style=\""vertical-align:middle\"">---生人""]","","",""
"","","","","","html-keyboard-response","133","633990","0.0-9.0-0.0-0.0-0.0-1.11","null","<span style='color:GreenYellow; font-size: 70px;'>正确! </span>","null","","","","","","","","","","","","","","","","","","","","","","","","","feedback_test","",""
"","","","","","psychophysics","134","635536","0.0-9.0-0.0-0.0-0.0-0.12","546","","arrowright","","","","","","","","","","","","","key","arrowright","4.200544959128002","853.3333333333334","476","arrowright","true","../../test_img/26.png","自我","matching_task","自我","[""<img src=\""../../test_img/26.png\"" width=150 style=\""vertical-align:middle\"">---自我"",""<img src=\""../../test_img/22.png\"" width=150 style=\""vertical-align:middle\"">---朋友"",""<img src=\""../../test_img/15.png\"" width=150 style=\""vertical-align:middle\"">---生人""]","","",""
"","","","","","html-keyboard-response","135","636048","0.0-9.0-0.0-0.0-0.0-1.12","null","<span style='color:GreenYellow; font-size: 70px;'>正确! </span>","null","","","","","","","","","","","","","","","","","","","","","","","","","feedback_test","",""
"","","","","","psychophysics","136","637782","0.0-9.0-0.0-0.0-0.0-0.13","731","","arrowleft","","","","","","","","","","","","","key","arrowleft","4.166746987951695","853.3333333333334","476","arrowleft","true","../../test_img/22.png","生人","matching_task","朋友","[""<img src=\""../../test_img/26.png\"" width=150 style=\""vertical-align:middle\"">---自我"",""<img src=\""../../test_img/22.png\"" width=150 style=\""vertical-align:middle\"">---朋友"",""<img src=\""../../test_img/15.png\"" width=150 style=\""vertical-align:middle\"">---生人""]","","",""
"","","","","","html-keyboard-response","137","638292","0.0-9.0-0.0-0.0-0.0-1.13","null","<span style='color:GreenYellow; font-size: 70px;'>正确! </span>","null","","","","","","","","","","","","","","","","","","","","","","","","","feedback_test","",""
"","","","","","psychophysics","138","639930","0.0-9.0-0.0-0.0-0.0-0.14","637","","arrowright","","","","","","","","","","","","","key","arrowright","4.162659846547255","853.3333333333334","476","arrowright","true","../../test_img/22.png","朋友","matching_task","朋友","[""<img src=\""../../test_img/26.png\"" width=150 style=\""vertical-align:middle\"">---自我"",""<img src=\""../../test_img/22.png\"" width=150 style=\""vertical-align:middle\"">---朋友"",""<img src=\""../../test_img/15.png\"" width=150 style=\""vertical-align:middle\"">---生人""]","","",""
"","","","","","html-keyboard-response","139","640437","0.0-9.0-0.0-0.0-0.0-1.14","null","<span style='color:GreenYellow; font-size: 70px;'>正确! </span>","null","","","","","","","","","","","","","","","","","","","","","","","","","feedback_test","",""
"","","","","","psychophysics","140","642088","0.0-9.0-0.0-0.0-0.0-0.15","649","","arrowleft","","","","","","","","","","","","","key","arrowleft","4.166835443038034","853.3333333333334","476","arrowleft","true","../../test_img/22.png","自我","matching_task","朋友","[""<img src=\""../../test_img/26.png\"" width=150 style=\""vertical-align:middle\"">---自我"",""<img src=\""../../test_img/22.png\"" width=150 style=\""vertical-align:middle\"">---朋友"",""<img src=\""../../test_img/15.png\"" width=150 style=\""vertical-align:middle\"">---生人""]","","",""
"","","","","","html-keyboard-response","141","642601","0.0-9.0-0.0-0.0-0.0-1.15","null","<span style='color:GreenYellow; font-size: 70px;'>正确! </span>","null","","","","","","","","","","","","","","","","","","","","","","","","","feedback_test","",""
"","","","","","psychophysics","142","644216","0.0-9.0-0.0-0.0-0.0-0.16","615","","arrowleft","","","","","","","","","","","","","key","arrowleft","4.188541666666727","853.3333333333334","476","arrowleft","true","../../test_img/15.png","自我","matching_task","生人","[""<img src=\""../../test_img/26.png\"" width=150 style=\""vertical-align:middle\"">---自我"",""<img src=\""../../test_img/22.png\"" width=150 style=\""vertical-align:middle\"">---朋友"",""<img src=\""../../test_img/15.png\"" width=150 style=\""vertical-align:middle\"">---生人""]","","",""
"","","","","","html-keyboard-response","143","644730","0.0-9.0-0.0-0.0-0.0-1.16","null","<span style='color:GreenYellow; font-size: 70px;'>正确! </span>","null","","","","","","","","","","","","","","","","","","","","","","","","","feedback_test","",""
"","","","","","psychophysics","144","646504","0.0-9.0-0.0-0.0-0.0-0.17","773","","arrowright","","","","","","","","","","","","","key","arrowright","4.162971698113153","853.3333333333334","476","arrowright","true","../../test_img/15.png","生人","matching_task","生人","[""<img src=\""../../test_img/26.png\"" width=150 style=\""vertical-align:middle\"">---自我"",""<img src=\""../../test_img/22.png\"" width=150 style=\""vertical-align:middle\"">---朋友"",""<img src=\""../../test_img/15.png\"" width=150 style=\""vertical-align:middle\"">---生人""]","","",""
"","","","","","html-keyboard-response","145","647018","0.0-9.0-0.0-0.0-0.0-1.17","null","<span style='color:GreenYellow; font-size: 70px;'>正确! </span>","null","","","","","","","","","","","","","","","","","","","","","","","","","feedback_test","",""
"","","","","","psychophysics","146","648600","0.0-9.0-0.0-0.0-0.0-0.18","580","","arrowright","","","","","","","","","","","","","key","arrowright","4.189095744681099","853.3333333333334","476","arrowright","true","../../test_img/26.png","自我","matching_task","自我","[""<img src=\""../../test_img/26.png\"" width=150 style=\""vertical-align:middle\"">---自我"",""<img src=\""../../test_img/22.png\"" width=150 style=\""vertical-align:middle\"">---朋友"",""<img src=\""../../test_img/15.png\"" width=150 style=\""vertical-align:middle\"">---生人""]","","",""
"","","","","","html-keyboard-response","147","649104","0.0-9.0-0.0-0.0-0.0-1.18","null","<span style='color:GreenYellow; font-size: 70px;'>正确! </span>","null","","","","","","","","","","","","","","","","","","","","","","","","","feedback_test","",""
"","","","","","psychophysics","148","650784","0.0-9.0-0.0-0.0-0.0-0.19","679","","arrowright","","","","","","","","","","","","","key","arrowright","4.162094763092269","853.3333333333334","476","arrowright","true","../../test_img/22.png","朋友","matching_task","朋友","[""<img src=\""../../test_img/26.png\"" width=150 style=\""vertical-align:middle\"">---自我"",""<img src=\""../../test_img/22.png\"" width=150 style=\""vertical-align:middle\"">---朋友"",""<img src=\""../../test_img/15.png\"" width=150 style=\""vertical-align:middle\"">---生人""]","","",""
"","","","","","html-keyboard-response","149","651287","0.0-9.0-0.0-0.0-0.0-1.19","null","<span style='color:GreenYellow; font-size: 70px;'>正确! </span>","null","","","","","","","","","","","","","","","","","","","","","","","","","feedback_test","",""
"","","","","","psychophysics","150","652959","0.0-9.0-0.0-0.0-0.0-0.20","670","","arrowright","","","","","","","","","","","","","key","arrowright","4.166749999999883","853.3333333333334","476","arrowright","true","../../test_img/15.png","生人","matching_task","生人","[""<img src=\""../../test_img/26.png\"" width=150 style=\""vertical-align:middle\"">---自我"",""<img src=\""../../test_img/22.png\"" width=150 style=\""vertical-align:middle\"">---朋友"",""<img src=\""../../test_img/15.png\"" width=150 style=\""vertical-align:middle\"">---生人""]","","",""
"","","","","","html-keyboard-response","151","653466","0.0-9.0-0.0-0.0-0.0-1.20","null","<span style='color:GreenYellow; font-size: 70px;'>正确! </span>","null","","","","","","","","","","","","","","","","","","","","","","","","","feedback_test","",""
"","","","","","psychophysics","152","655079","0.0-9.0-0.0-0.0-0.0-0.21","611","","arrowleft","","","","","","","","","","","","","key","arrowleft","4.16658031088095","853.3333333333334","476","arrowleft","true","../../test_img/26.png","生人","matching_task","自我","[""<img src=\""../../test_img/26.png\"" width=150 style=\""vertical-align:middle\"">---自我"",""<img src=\""../../test_img/22.png\"" width=150 style=\""vertical-align:middle\"">---朋友"",""<img src=\""../../test_img/15.png\"" width=150 style=\""vertical-align:middle\"">---生人""]","","",""
"","","","","","html-keyboard-response","153","655590","0.0-9.0-0.0-0.0-0.0-1.21","null","<span style='color:GreenYellow; font-size: 70px;'>正确! </span>","null","","","","","","","","","","","","","","","","","","","","","","","","","feedback_test","",""
"","","","","","psychophysics","154","657471","0.0-9.0-0.0-0.0-0.0-0.22","877","","arrowright","","","","","","","","","","","","","key","arrowright","4.166666666666667","853.3333333333334","476","arrowleft","false","../../test_img/26.png","朋友","matching_task","自我","[""<img src=\""../../test_img/26.png\"" width=150 style=\""vertical-align:middle\"">---自我"",""<img src=\""../../test_img/22.png\"" width=150 style=\""vertical-align:middle\"">---朋友"",""<img src=\""../../test_img/15.png\"" width=150 style=\""vertical-align:middle\"">---生人""]","","",""
"","","","","","html-keyboard-response","155","657986","0.0-9.0-0.0-0.0-0.0-1.22","null","<span style='color:red; font-size: 70px;'>错误! </span>","null","","","","","","","","","","","","","","","","","","","","","","","","","feedback_test","",""
"","","","","","psychophysics","156","660072","0.0-9.0-0.0-0.0-0.0-0.23","1083","","arrowleft","","","","","","","","","","","","","key","arrowleft","4.1669338677355645","853.3333333333334","476","arrowleft","true","../../test_img/15.png","朋友","matching_task","生人","[""<img src=\""../../test_img/26.png\"" width=150 style=\""vertical-align:middle\"">---自我"",""<img src=\""../../test_img/22.png\"" width=150 style=\""vertical-align:middle\"">---朋友"",""<img src=\""../../test_img/15.png\"" width=150 style=\""vertical-align:middle\"">---生人""]","","",""
"","","","","","html-keyboard-response","157","660575","0.0-9.0-0.0-0.0-0.0-1.23","null","<span style='color:GreenYellow; font-size: 70px;'>正确! </span>","null","","","","","","","","","","","","","","","","","","","","","","","","","feedback_test","",""
"","","","","","psychophysics","158","662537","0.0-9.0-0.0-0.0-0.0-0.24","961","","arrowright","","","","","","","","","","","","","key","arrowright","4.164179104477612","853.3333333333334","476","arrowright","true","../../test_img/15.png","生人","matching_task","生人","[""<img src=\""../../test_img/26.png\"" width=150 style=\""vertical-align:middle\"">---自我"",""<img src=\""../../test_img/22.png\"" width=150 style=\""vertical-align:middle\"">---朋友"",""<img src=\""../../test_img/15.png\"" width=150 style=\""vertical-align:middle\"">---生人""]","","",""
"","","","","","html-keyboard-response","159","663044","0.0-9.0-0.0-0.0-0.0-1.24","null","<span style='color:GreenYellow; font-size: 70px;'>正确! </span>","null","","","","","","","","","","","","","","","","","","","","","","","","","feedback_test","",""
"","","","","","psychophysics","160","664710","0.0-9.0-0.0-0.0-0.0-0.25","663","","arrowright","","","","","","","","","","","","","key","arrowright","4.166416040100309","853.3333333333334","476","arrowright","true","../../test_img/22.png","朋友","matching_task","朋友","[""<img src=\""../../test_img/26.png\"" width=150 style=\""vertical-align:middle\"">---自我"",""<img src=\""../../test_img/22.png\"" width=150 style=\""vertical-align:middle\"">---朋友"",""<img src=\""../../test_img/15.png\"" width=150 style=\""vertical-align:middle\"">---生人""]","","",""
"","","","","","html-keyboard-response","161","665214","0.0-9.0-0.0-0.0-0.0-1.25","null","<span style='color:GreenYellow; font-size: 70px;'>正确! </span>","null","","","","","","","","","","","","","","","","","","","","","","","","","feedback_test","",""
"","","","","","psychophysics","162","666879","0.0-9.0-0.0-0.0-0.0-0.26","661","","arrowleft","","","","","","","","","","","","","key","arrowleft","4.187848101265705","853.3333333333334","476","arrowleft","true","../../test_img/22.png","自我","matching_task","朋友","[""<img src=\""../../test_img/26.png\"" width=150 style=\""vertical-align:middle\"">---自我"",""<img src=\""../../test_img/22.png\"" width=150 style=\""vertical-align:middle\"">---朋友"",""<img src=\""../../test_img/15.png\"" width=150 style=\""vertical-align:middle\"">---生人""]","","",""
"","","","","","html-keyboard-response","163","667383","0.0-9.0-0.0-0.0-0.0-1.26","null","<span style='color:GreenYellow; font-size: 70px;'>正确! </span>","null","","","","","","","","","","","","","","","","","","","","","","","","","feedback_test","",""
"","","","","","psychophysics","164","669128","0.0-9.0-0.0-0.0-0.0-0.27","743","","arrowleft","","","","","","","","","","","","","key","arrowleft","4.163788968824773","853.3333333333334","476","arrowleft","true","../../test_img/22.png","生人","matching_task","朋友","[""<img src=\""../../test_img/26.png\"" width=150 style=\""vertical-align:middle\"">---自我"",""<img src=\""../../test_img/22.png\"" width=150 style=\""vertical-align:middle\"">---朋友"",""<img src=\""../../test_img/15.png\"" width=150 style=\""vertical-align:middle\"">---生人""]","","",""
"","","","","","html-keyboard-response","165","669640","0.0-9.0-0.0-0.0-0.0-1.27","null","<span style='color:GreenYellow; font-size: 70px;'>正确! </span>","null","","","","","","","","","","","","","","","","","","","","","","","","","feedback_test","",""
"","","","","","psychophysics","166","671249","0.0-9.0-0.0-0.0-0.0-0.28","606","","arrowleft","","","","","","","","","","","","","key","arrowleft","4.166753246753125","853.3333333333334","476","arrowleft","true","../../test_img/15.png","自我","matching_task","生人","[""<img src=\""../../test_img/26.png\"" width=150 style=\""vertical-align:middle\"">---自我"",""<img src=\""../../test_img/22.png\"" width=150 style=\""vertical-align:middle\"">---朋友"",""<img src=\""../../test_img/15.png\"" width=150 style=\""vertical-align:middle\"">---生人""]","","",""
"","","","","","html-keyboard-response","167","671753","0.0-9.0-0.0-0.0-0.0-1.28","null","<span style='color:GreenYellow; font-size: 70px;'>正确! </span>","null","","","","","","","","","","","","","","","","","","","","","","","","","feedback_test","",""
"","","","","","psychophysics","168","673483","0.0-9.0-0.0-0.0-0.0-0.29","728","","arrowleft","","","","","","","","","","","","","key","arrowleft","4.186650485436667","853.3333333333334","476","arrowleft","true","../../test_img/15.png","朋友","matching_task","生人","[""<img src=\""../../test_img/26.png\"" width=150 style=\""vertical-align:middle\"">---自我"",""<img src=\""../../test_img/22.png\"" width=150 style=\""vertical-align:middle\"">---朋友"",""<img src=\""../../test_img/15.png\"" width=150 style=\""vertical-align:middle\"">---生人""]","","",""
"","","","","","html-keyboard-response","169","673999","0.0-9.0-0.0-0.0-0.0-1.29","null","<span style='color:GreenYellow; font-size: 70px;'>正确! </span>","null","","","","","","","","","","","","","","","","","","","","","","","","","feedback_test","",""
"","","","","","psychophysics","170","675735","0.0-9.0-0.0-0.0-0.0-0.30","733","","arrowright","","","","","","","","","","","","","key","arrowright","4.186714975845523","853.3333333333334","476","arrowright","true","../../test_img/15.png","生人","matching_task","生人","[""<img src=\""../../test_img/26.png\"" width=150 style=\""vertical-align:middle\"">---自我"",""<img src=\""../../test_img/22.png\"" width=150 style=\""vertical-align:middle\"">---朋友"",""<img src=\""../../test_img/15.png\"" width=150 style=\""vertical-align:middle\"">---生人""]","","",""
"","","","","","html-keyboard-response","171","676249","0.0-9.0-0.0-0.0-0.0-1.30","null","<span style='color:GreenYellow; font-size: 70px;'>正确! </span>","null","","","","","","","","","","","","","","","","","","","","","","","","","feedback_test","",""
"","","","","","psychophysics","172","677871","0.0-9.0-0.0-0.0-0.0-0.31","620","","arrowright","","","","","","","","","","","","","key","arrowright","4.166752577319768","853.3333333333334","476","arrowright","true","../../test_img/26.png","自我","matching_task","自我","[""<img src=\""../../test_img/26.png\"" width=150 style=\""vertical-align:middle\"">---自我"",""<img src=\""../../test_img/22.png\"" width=150 style=\""vertical-align:middle\"">---朋友"",""<img src=\""../../test_img/15.png\"" width=150 style=\""vertical-align:middle\"">---生人""]","","",""
"","","","","","html-keyboard-response","173","678382","0.0-9.0-0.0-0.0-0.0-1.31","null","<span style='color:GreenYellow; font-size: 70px;'>正确! </span>","null","","","","","","","","","","","","","","","","","","","","","","","","","feedback_test","",""
"","","","","","psychophysics","174","680216","0.0-9.0-0.0-0.0-0.0-0.32","832","","arrowright","","","","","","","","","","","","","key","arrowright","4.176027397260221","853.3333333333334","476","arrowright","true","../../test_img/22.png","朋友","matching_task","朋友","[""<img src=\""../../test_img/26.png\"" width=150 style=\""vertical-align:middle\"">---自我"",""<img src=\""../../test_img/22.png\"" width=150 style=\""vertical-align:middle\"">---朋友"",""<img src=\""../../test_img/15.png\"" width=150 style=\""vertical-align:middle\"">---生人""]","","",""
"","","","","","html-keyboard-response","175","680730","0.0-9.0-0.0-0.0-0.0-1.32","null","<span style='color:GreenYellow; font-size: 70px;'>正确! </span>","null","","","","","","","","","","","","","","","","","","","","","","","","","feedback_test","",""
"","","","","","psychophysics","176","682343","0.0-9.0-0.0-0.0-0.0-0.33","611","","arrowright","","","","","","","","","","","","","key","arrowright","4.167272727272485","853.3333333333334","476","arrowright","true","../../test_img/26.png","自我","matching_task","自我","[""<img src=\""../../test_img/26.png\"" width=150 style=\""vertical-align:middle\"">---自我"",""<img src=\""../../test_img/22.png\"" width=150 style=\""vertical-align:middle\"">---朋友"",""<img src=\""../../test_img/15.png\"" width=150 style=\""vertical-align:middle\"">---生人""]","","",""
"","","","","","html-keyboard-response","177","682851","0.0-9.0-0.0-0.0-0.0-1.33","null","<span style='color:GreenYellow; font-size: 70px;'>正确! </span>","null","","","","","","","","","","","","","","","","","","","","","","","","","feedback_test","",""
"","","","","","psychophysics","178","684617","0.0-9.0-0.0-0.0-0.0-0.34","765","","arrowleft","","","","","","","","","","","","","key","arrowleft","4.166587677725229","853.3333333333334","476","arrowleft","true","../../test_img/26.png","生人","matching_task","自我","[""<img src=\""../../test_img/26.png\"" width=150 style=\""vertical-align:middle\"">---自我"",""<img src=\""../../test_img/22.png\"" width=150 style=\""vertical-align:middle\"">---朋友"",""<img src=\""../../test_img/15.png\"" width=150 style=\""vertical-align:middle\"">---生人""]","","",""
"","","","","","html-keyboard-response","179","685126","0.0-9.0-0.0-0.0-0.0-1.34","null","<span style='color:GreenYellow; font-size: 70px;'>正确! </span>","null","","","","","","","","","","","","","","","","","","","","","","","","","feedback_test","",""
"","","","","","psychophysics","180","686863","0.0-9.0-0.0-0.0-0.0-0.35","736","","arrowleft","","","","","","","","","","","","","key","arrowleft","4.207299270073163","853.3333333333334","476","arrowleft","true","../../test_img/26.png","朋友","matching_task","自我","[""<img src=\""../../test_img/26.png\"" width=150 style=\""vertical-align:middle\"">---自我"",""<img src=\""../../test_img/22.png\"" width=150 style=\""vertical-align:middle\"">---朋友"",""<img src=\""../../test_img/15.png\"" width=150 style=\""vertical-align:middle\"">---生人""]","","",""
"","","","","","html-keyboard-response","181","687378","0.0-9.0-0.0-0.0-0.0-1.35","null","<span style='color:GreenYellow; font-size: 70px;'>正确! </span>","null","","","","","","","","","","","","","","","","","","","","","","","","","feedback_test","",""
"","","","","","psychophysics","182","689064","0.0-9.0-0.0-0.0-0.0-0.36","682","","arrowright","","","","","","","","","","","","","key","arrowright","4.17711442786087","853.3333333333334","476","arrowright","true","../../test_img/22.png","朋友","matching_task","朋友","[""<img src=\""../../test_img/26.png\"" width=150 style=\""vertical-align:middle\"">---自我"",""<img src=\""../../test_img/22.png\"" width=150 style=\""vertical-align:middle\"">---朋友"",""<img src=\""../../test_img/15.png\"" width=150 style=\""vertical-align:middle\"">---生人""]","","",""
"","","","","","html-keyboard-response","183","689565","0.0-9.0-0.0-0.0-0.0-1.36","null","<span style='color:GreenYellow; font-size: 70px;'>正确! </span>","null","","","","","","","","","","","","","","","","","","","","","","","","","feedback_test","",""
"","","","","","psychophysics","184","691513","0.0-9.0-0.0-0.0-0.0-0.37","946","","arrowleft","","","","","","","","","","","","","key","arrowleft","4.202597402597352","853.3333333333334","476","arrowleft","true","../../test_img/26.png","生人","matching_task","自我","[""<img src=\""../../test_img/26.png\"" width=150 style=\""vertical-align:middle\"">---自我"",""<img src=\""../../test_img/22.png\"" width=150 style=\""vertical-align:middle\"">---朋友"",""<img src=\""../../test_img/15.png\"" width=150 style=\""vertical-align:middle\"">---生人""]","","",""
"","","","","","html-keyboard-response","185","692016","0.0-9.0-0.0-0.0-0.0-1.37","null","<span style='color:GreenYellow; font-size: 70px;'>正确! </span>","null","","","","","","","","","","","","","","","","","","","","","","","","","feedback_test","",""
"","","","","","psychophysics","186","693600","0.0-9.0-0.0-0.0-0.0-0.38","582","","arrowleft","","","","","","","","","","","","","key","arrowleft","4.164550264550141","853.3333333333334","476","arrowleft","true","../../test_img/15.png","自我","matching_task","生人","[""<img src=\""../../test_img/26.png\"" width=150 style=\""vertical-align:middle\"">---自我"",""<img src=\""../../test_img/22.png\"" width=150 style=\""vertical-align:middle\"">---朋友"",""<img src=\""../../test_img/15.png\"" width=150 style=\""vertical-align:middle\"">---生人""]","","",""
"","","","","","html-keyboard-response","187","694107","0.0-9.0-0.0-0.0-0.0-1.38","null","<span style='color:GreenYellow; font-size: 70px;'>正确! </span>","null","","","","","","","","","","","","","","","","","","","","","","","","","feedback_test","",""
"","","","","","psychophysics","188","695634","0.0-9.0-0.0-0.0-0.0-0.39","525","","arrowright","","","","","","","","","","","","","key","arrowright","4.178021978022106","853.3333333333334","476","arrowright","true","../../test_img/26.png","自我","matching_task","自我","[""<img src=\""../../test_img/26.png\"" width=150 style=\""vertical-align:middle\"">---自我"",""<img src=\""../../test_img/22.png\"" width=150 style=\""vertical-align:middle\"">---朋友"",""<img src=\""../../test_img/15.png\"" width=150 style=\""vertical-align:middle\"">---生人""]","","",""
"","","","","","html-keyboard-response","189","696140","0.0-9.0-0.0-0.0-0.0-1.39","null","<span style='color:GreenYellow; font-size: 70px;'>正确! </span>","null","","","","","","","","","","","","","","","","","","","","","","","","","feedback_test","",""
"","","","","","psychophysics","190","697656","0.0-9.0-0.0-0.0-0.0-0.40","513","","arrowleft","","","","","","","","","","","","","key","arrowleft","4.190304709141145","853.3333333333334","476","arrowleft","true","../../test_img/15.png","朋友","matching_task","生人","[""<img src=\""../../test_img/26.png\"" width=150 style=\""vertical-align:middle\"">---自我"",""<img src=\""../../test_img/22.png\"" width=150 style=\""vertical-align:middle\"">---朋友"",""<img src=\""../../test_img/15.png\"" width=150 style=\""vertical-align:middle\"">---生人""]","","",""
"","","","","","html-keyboard-response","191","698169","0.0-9.0-0.0-0.0-0.0-1.40","null","<span style='color:GreenYellow; font-size: 70px;'>正确! </span>","null","","","","","","","","","","","","","","","","","","","","","","","","","feedback_test","",""
"","","","","","psychophysics","192","699942","0.0-9.0-0.0-0.0-0.0-0.41","771","","arrowleft","","","","","","","","","","","","","key","arrowleft","4.166745283019033","853.3333333333334","476","arrowleft","true","../../test_img/22.png","生人","matching_task","朋友","[""<img src=\""../../test_img/26.png\"" width=150 style=\""vertical-align:middle\"">---自我"",""<img src=\""../../test_img/22.png\"" width=150 style=\""vertical-align:middle\"">---朋友"",""<img src=\""../../test_img/15.png\"" width=150 style=\""vertical-align:middle\"">---生人""]","","",""
"","","","","","html-keyboard-response","193","700450","0.0-9.0-0.0-0.0-0.0-1.41","null","<span style='color:GreenYellow; font-size: 70px;'>正确! </span>","null","","","","","","","","","","","","","","","","","","","","","","","","","feedback_test","",""
"","","","","","psychophysics","194","702128","0.0-9.0-0.0-0.0-0.0-0.42","677","","arrowright","","","","","","","","","","","","","key","arrowright","4.184210526315789","853.3333333333334","476","arrowright","true","../../test_img/22.png","朋友","matching_task","朋友","[""<img src=\""../../test_img/26.png\"" width=150 style=\""vertical-align:middle\"">---自我"",""<img src=\""../../test_img/22.png\"" width=150 style=\""vertical-align:middle\"">---朋友"",""<img src=\""../../test_img/15.png\"" width=150 style=\""vertical-align:middle\"">---生人""]","","",""
"","","","","","html-keyboard-response","195","702634","0.0-9.0-0.0-0.0-0.0-1.42","null","<span style='color:GreenYellow; font-size: 70px;'>正确! </span>","null","","","","","","","","","","","","","","","","","","","","","","","","","feedback_test","",""
"","","","","","psychophysics","196","704216","0.0-9.0-0.0-0.0-0.0-0.43","581","","arrowright","","","","","","","","","","","","","key","arrowright","4.166666666666667","853.3333333333334","476","arrowright","true","../../test_img/26.png","自我","matching_task","自我","[""<img src=\""../../test_img/26.png\"" width=150 style=\""vertical-align:middle\"">---自我"",""<img src=\""../../test_img/22.png\"" width=150 style=\""vertical-align:middle\"">---朋友"",""<img src=\""../../test_img/15.png\"" width=150 style=\""vertical-align:middle\"">---生人""]","","",""
"","","","","","html-keyboard-response","197","704729","0.0-9.0-0.0-0.0-0.0-1.43","null","<span style='color:GreenYellow; font-size: 70px;'>正确! </span>","null","","","","","","","","","","","","","","","","","","","","","","","","","feedback_test","",""
"","","","","","psychophysics","198","706377","0.0-9.0-0.0-0.0-0.0-0.44","647","","arrowleft","","","","","","","","","","","","","key","arrowleft","4.163959390862885","853.3333333333334","476","arrowleft","true","../../test_img/26.png","朋友","matching_task","自我","[""<img src=\""../../test_img/26.png\"" width=150 style=\""vertical-align:middle\"">---自我"",""<img src=\""../../test_img/22.png\"" width=150 style=\""vertical-align:middle\"">---朋友"",""<img src=\""../../test_img/15.png\"" width=150 style=\""vertical-align:middle\"">---生人""]","","",""
"","","","","","html-keyboard-response","199","706879","0.0-9.0-0.0-0.0-0.0-1.44","null","<span style='color:GreenYellow; font-size: 70px;'>正确! </span>","null","","","","","","","","","","","","","","","","","","","","","","","","","feedback_test","",""
"","","","","","psychophysics","200","708536","0.0-9.0-0.0-0.0-0.0-0.45","656","","arrowleft","","","","","","","","","","","","","key","arrowleft","4.1746835443037975","853.3333333333334","476","arrowleft","true","../../test_img/22.png","自我","matching_task","朋友","[""<img src=\""../../test_img/26.png\"" width=150 style=\""vertical-align:middle\"">---自我"",""<img src=\""../../test_img/22.png\"" width=150 style=\""vertical-align:middle\"">---朋友"",""<img src=\""../../test_img/15.png\"" width=150 style=\""vertical-align:middle\"">---生人""]","","",""
"","","","","","html-keyboard-response","201","709046","0.0-9.0-0.0-0.0-0.0-1.45","null","<span style='color:GreenYellow; font-size: 70px;'>正确! </span>","null","","","","","","","","","","","","","","","","","","","","","","","","","feedback_test","",""
"","","","","","psychophysics","202","710703","0.0-9.0-0.0-0.0-0.0-0.46","656","","arrowright","","","","","","","","","","","","","key","arrowright","4.194402035623469","853.3333333333334","476","arrowright","true","../../test_img/15.png","生人","matching_task","生人","[""<img src=\""../../test_img/26.png\"" width=150 style=\""vertical-align:middle\"">---自我"",""<img src=\""../../test_img/22.png\"" width=150 style=\""vertical-align:middle\"">---朋友"",""<img src=\""../../test_img/15.png\"" width=150 style=\""vertical-align:middle\"">---生人""]","","",""
"","","","","","html-keyboard-response","203","711210","0.0-9.0-0.0-0.0-0.0-1.46","null","<span style='color:GreenYellow; font-size: 70px;'>正确! </span>","null","","","","","","","","","","","","","","","","","","","","","","","","","feedback_test","",""
"","","","","","psychophysics","204","712984","0.0-9.0-0.0-0.0-0.0-0.47","769","","arrowright","","","","","","","","","","","","","key","arrowright","4.186492890995426","853.3333333333334","476","arrowright","true","../../test_img/15.png","生人","matching_task","生人","[""<img src=\""../../test_img/26.png\"" width=150 style=\""vertical-align:middle\"">---自我"",""<img src=\""../../test_img/22.png\"" width=150 style=\""vertical-align:middle\"">---朋友"",""<img src=\""../../test_img/15.png\"" width=150 style=\""vertical-align:middle\"">---生人""]","","",""
"","","","","","html-keyboard-response","205","713487","0.0-9.0-0.0-0.0-0.0-1.47","null","<span style='color:GreenYellow; font-size: 70px;'>正确! </span>","null","","","","","","","","","","","","","","","","","","","","","","","","","feedback_test","",""
"","","","","","psychophysics","206","715175","0.0-9.0-0.0-0.0-0.0-0.48","687","","arrowleft","","","","","","","","","","","","","key","arrowleft","4.163771712158809","853.3333333333334","476","arrowright","false","../../test_img/15.png","生人","matching_task","生人","[""<img src=\""../../test_img/26.png\"" width=150 style=\""vertical-align:middle\"">---自我"",""<img src=\""../../test_img/22.png\"" width=150 style=\""vertical-align:middle\"">---朋友"",""<img src=\""../../test_img/15.png\"" width=150 style=\""vertical-align:middle\"">---生人""]","","",""
"","","","","","html-keyboard-response","207","715686","0.0-9.0-0.0-0.0-0.0-1.48","null","<span style='color:red; font-size: 70px;'>错误! </span>","null","","","","","","","","","","","","","","","","","","","","","","","","","feedback_test","",""
"","","","","","psychophysics","208","717338","0.0-9.0-0.0-0.0-0.0-0.49","650","","arrowleft","","","","","","","","","","","","","key","arrowleft","4.188295165394402","853.3333333333334","476","arrowleft","true","../../test_img/22.png","生人","matching_task","朋友","[""<img src=\""../../test_img/26.png\"" width=150 style=\""vertical-align:middle\"">---自我"",""<img src=\""../../test_img/22.png\"" width=150 style=\""vertical-align:middle\"">---朋友"",""<img src=\""../../test_img/15.png\"" width=150 style=\""vertical-align:middle\"">---生人""]","","",""
"","","","","","html-keyboard-response","209","717847","0.0-9.0-0.0-0.0-0.0-1.49","null","<span style='color:GreenYellow; font-size: 70px;'>正确! </span>","null","","","","","","","","","","","","","","","","","","","","","","","","","feedback_test","",""
"","","","","","psychophysics","210","719487","0.0-9.0-0.0-0.0-0.0-0.50","636","","arrowleft","","","","","","","","","","","","","key","arrowleft","4.198714652956418","853.3333333333334","476","arrowleft","true","../../test_img/26.png","朋友","matching_task","自我","[""<img src=\""../../test_img/26.png\"" width=150 style=\""vertical-align:middle\"">---自我"",""<img src=\""../../test_img/22.png\"" width=150 style=\""vertical-align:middle\"">---朋友"",""<img src=\""../../test_img/15.png\"" width=150 style=\""vertical-align:middle\"">---生人""]","","",""
"","","","","","html-keyboard-response","211","719995","0.0-9.0-0.0-0.0-0.0-1.50","null","<span style='color:GreenYellow; font-size: 70px;'>正确! </span>","null","","","","","","","","","","","","","","","","","","","","","","","","","feedback_test","",""
"","","","","","psychophysics","212","721767","0.0-9.0-0.0-0.0-0.0-0.51","771","","arrowright","","","","","","","","","","","","","key","arrowright","4.163356973995217","853.3333333333334","476","arrowleft","false","../../test_img/15.png","自我","matching_task","生人","[""<img src=\""../../test_img/26.png\"" width=150 style=\""vertical-align:middle\"">---自我"",""<img src=\""../../test_img/22.png\"" width=150 style=\""vertical-align:middle\"">---朋友"",""<img src=\""../../test_img/15.png\"" width=150 style=\""vertical-align:middle\"">---生人""]","","",""
"","","","","","html-keyboard-response","213","722274","0.0-9.0-0.0-0.0-0.0-1.51","null","<span style='color:red; font-size: 70px;'>错误! </span>","null","","","","","","","","","","","","","","","","","","","","","","","","","feedback_test","",""
"","","","","","psychophysics","214","723856","0.0-9.0-0.0-0.0-0.0-0.52","580","","arrowright","","","","","","","","","","","","","key","arrowright","4.166754617414125","853.3333333333334","476","arrowright","true","../../test_img/22.png","朋友","matching_task","朋友","[""<img src=\""../../test_img/26.png\"" width=150 style=\""vertical-align:middle\"">---自我"",""<img src=\""../../test_img/22.png\"" width=150 style=\""vertical-align:middle\"">---朋友"",""<img src=\""../../test_img/15.png\"" width=150 style=\""vertical-align:middle\"">---生人""]","","",""
"","","","","","html-keyboard-response","215","724362","0.0-9.0-0.0-0.0-0.0-1.52","null","<span style='color:GreenYellow; font-size: 70px;'>正确! </span>","null","","","","","","","","","","","","","","","","","","","","","","","","","feedback_test","",""
"","","","","","psychophysics","216","726008","0.0-9.0-0.0-0.0-0.0-0.53","644","","arrowleft","","","","","","","","","","","","","key","arrowleft","4.173469387755102","853.3333333333334","476","arrowleft","true","../../test_img/22.png","自我","matching_task","朋友","[""<img src=\""../../test_img/26.png\"" width=150 style=\""vertical-align:middle\"">---自我"",""<img src=\""../../test_img/22.png\"" width=150 style=\""vertical-align:middle\"">---朋友"",""<img src=\""../../test_img/15.png\"" width=150 style=\""vertical-align:middle\"">---生人""]","","",""
"","","","","","html-keyboard-response","217","726518","0.0-9.0-0.0-0.0-0.0-1.53","null","<span style='color:GreenYellow; font-size: 70px;'>正确! </span>","null","","","","","","","","","","","","","","","","","","","","","","","","","feedback_test","",""
"","","","","","psychophysics","218","728112","0.0-9.0-0.0-0.0-0.0-0.54","591","","arrowright","","","","","","","","","","","","","key","arrowright","4.199735449735449","853.3333333333334","476","arrowright","true","../../test_img/26.png","自我","matching_task","自我","[""<img src=\""../../test_img/26.png\"" width=150 style=\""vertical-align:middle\"">---自我"",""<img src=\""../../test_img/22.png\"" width=150 style=\""vertical-align:middle\"">---朋友"",""<img src=\""../../test_img/15.png\"" width=150 style=\""vertical-align:middle\"">---生人""]","","",""
"","","","","","html-keyboard-response","219","728627","0.0-9.0-0.0-0.0-0.0-1.54","null","<span style='color:GreenYellow; font-size: 70px;'>正确! </span>","null","","","","","","","","","","","","","","","","","","","","","","","","","feedback_test","",""
"","","","","","psychophysics","220","730137","0.0-9.0-0.0-0.0-0.0-0.55","507","","arrowright","","","","","","","","","","","","","key","arrowright","4.189693593314699","853.3333333333334","476","arrowright","true","../../test_img/26.png","自我","matching_task","自我","[""<img src=\""../../test_img/26.png\"" width=150 style=\""vertical-align:middle\"">---自我"",""<img src=\""../../test_img/22.png\"" width=150 style=\""vertical-align:middle\"">---朋友"",""<img src=\""../../test_img/15.png\"" width=150 style=\""vertical-align:middle\"">---生人""]","","",""
"","","","","","html-keyboard-response","221","730639","0.0-9.0-0.0-0.0-0.0-1.55","null","<span style='color:GreenYellow; font-size: 70px;'>正确! </span>","null","","","","","","","","","","","","","","","","","","","","","","","","","feedback_test","",""
"","","","","","psychophysics","222","732361","0.0-9.0-0.0-0.0-0.0-0.56","718","","arrowright","","","","","","","","","","","","","key","arrowright","4.176885644769026","853.3333333333334","476","arrowright","true","../../test_img/15.png","生人","matching_task","生人","[""<img src=\""../../test_img/26.png\"" width=150 style=\""vertical-align:middle\"">---自我"",""<img src=\""../../test_img/22.png\"" width=150 style=\""vertical-align:middle\"">---朋友"",""<img src=\""../../test_img/15.png\"" width=150 style=\""vertical-align:middle\"">---生人""]","","",""
"","","","","","html-keyboard-response","223","732864","0.0-9.0-0.0-0.0-0.0-1.56","null","<span style='color:GreenYellow; font-size: 70px;'>正确! </span>","null","","","","","","","","","","","","","","","","","","","","","","","","","feedback_test","",""
"","","","","","psychophysics","224","734591","0.0-9.0-0.0-0.0-0.0-0.57","724","","arrowleft","","","","","","","","","","","","","key","arrowleft","4.166828087167127","853.3333333333334","476","arrowleft","true","../../test_img/15.png","朋友","matching_task","生人","[""<img src=\""../../test_img/26.png\"" width=150 style=\""vertical-align:middle\"">---自我"",""<img src=\""../../test_img/22.png\"" width=150 style=\""vertical-align:middle\"">---朋友"",""<img src=\""../../test_img/15.png\"" width=150 style=\""vertical-align:middle\"">---生人""]","","",""
"","","","","","html-keyboard-response","225","735092","0.0-9.0-0.0-0.0-0.0-1.57","null","<span style='color:GreenYellow; font-size: 70px;'>正确! </span>","null","","","","","","","","","","","","","","","","","","","","","","","","","feedback_test","",""
"","","","","","psychophysics","226","736695","0.0-9.0-0.0-0.0-0.0-0.58","602","","arrowright","","","","","","","","","","","","","key","arrowright","4.1663185378591905","853.3333333333334","476","arrowright","true","../../test_img/22.png","朋友","matching_task","朋友","[""<img src=\""../../test_img/26.png\"" width=150 style=\""vertical-align:middle\"">---自我"",""<img src=\""../../test_img/22.png\"" width=150 style=\""vertical-align:middle\"">---朋友"",""<img src=\""../../test_img/15.png\"" width=150 style=\""vertical-align:middle\"">---生人""]","","",""
"","","","","","html-keyboard-response","227","737197","0.0-9.0-0.0-0.0-0.0-1.58","null","<span style='color:GreenYellow; font-size: 70px;'>正确! </span>","null","","","","","","","","","","","","","","","","","","","","","","","","","feedback_test","",""
"","","","","","psychophysics","228","739032","0.0-9.0-0.0-0.0-0.0-0.59","835","","arrowright","","","","","","","","","","","","","key","arrowright","4.166742596810828","853.3333333333334","476","arrowleft","false","../../test_img/26.png","生人","matching_task","自我","[""<img src=\""../../test_img/26.png\"" width=150 style=\""vertical-align:middle\"">---自我"",""<img src=\""../../test_img/22.png\"" width=150 style=\""vertical-align:middle\"">---朋友"",""<img src=\""../../test_img/15.png\"" width=150 style=\""vertical-align:middle\"">---生人""]","","",""
"","","","","","html-keyboard-response","229","739533","0.0-9.0-0.0-0.0-0.0-1.59","null","<span style='color:red; font-size: 70px;'>错误! </span>","null","","","","","","","","","","","","","","","","","","","","","","","","","feedback_test","",""
"","","","","","psychophysics","230","741121","0.0-9.0-0.0-0.0-0.0-0.60","586","","arrowright","","","","","","","","","","","","","key","arrowright","4.177777777777655","853.3333333333334","476","arrowright","true","../../test_img/26.png","自我","matching_task","自我","[""<img src=\""../../test_img/26.png\"" width=150 style=\""vertical-align:middle\"">---自我"",""<img src=\""../../test_img/22.png\"" width=150 style=\""vertical-align:middle\"">---朋友"",""<img src=\""../../test_img/15.png\"" width=150 style=\""vertical-align:middle\"">---生人""]","","",""
"","","","","","html-keyboard-response","231","741624","0.0-9.0-0.0-0.0-0.0-1.60","null","<span style='color:GreenYellow; font-size: 70px;'>正确! </span>","null","","","","","","","","","","","","","","","","","","","","","","","","","feedback_test","",""
"","","","","","psychophysics","232","743351","0.0-9.0-0.0-0.0-0.0-0.61","725","","arrowleft","","","","","","","","","","","","","key","arrowleft","4.164406779661073","853.3333333333334","476","arrowleft","true","../../test_img/26.png","朋友","matching_task","自我","[""<img src=\""../../test_img/26.png\"" width=150 style=\""vertical-align:middle\"">---自我"",""<img src=\""../../test_img/22.png\"" width=150 style=\""vertical-align:middle\"">---朋友"",""<img src=\""../../test_img/15.png\"" width=150 style=\""vertical-align:middle\"">---生人""]","","",""
"","","","","","html-keyboard-response","233","743853","0.0-9.0-0.0-0.0-0.0-1.61","null","<span style='color:GreenYellow; font-size: 70px;'>正确! </span>","null","","","","","","","","","","","","","","","","","","","","","","","","","feedback_test","",""
"","","","","","psychophysics","234","745591","0.0-9.0-0.0-0.0-0.0-0.62","736","","arrowleft","","","","","","","","","","","","","key","arrowleft","4.16658653846137","853.3333333333334","476","arrowleft","true","../../test_img/15.png","自我","matching_task","生人","[""<img src=\""../../test_img/26.png\"" width=150 style=\""vertical-align:middle\"">---自我"",""<img src=\""../../test_img/22.png\"" width=150 style=\""vertical-align:middle\"">---朋友"",""<img src=\""../../test_img/15.png\"" width=150 style=\""vertical-align:middle\"">---生人""]","","",""
"","","","","","html-keyboard-response","235","746099","0.0-9.0-0.0-0.0-0.0-1.62","null","<span style='color:GreenYellow; font-size: 70px;'>正确! </span>","null","","","","","","","","","","","","","","","","","","","","","","","","","feedback_test","",""
"","","","","","psychophysics","236","747967","0.0-9.0-0.0-0.0-0.0-0.63","867","","arrowleft","","","","","","","","","","","","","key","arrowleft","4.200226244343892","853.3333333333334","476","arrowleft","true","../../test_img/15.png","朋友","matching_task","生人","[""<img src=\""../../test_img/26.png\"" width=150 style=\""vertical-align:middle\"">---自我"",""<img src=\""../../test_img/22.png\"" width=150 style=\""vertical-align:middle\"">---朋友"",""<img src=\""../../test_img/15.png\"" width=150 style=\""vertical-align:middle\"">---生人""]","","",""
"","","","","","html-keyboard-response","237","748475","0.0-9.0-0.0-0.0-0.0-1.63","null","<span style='color:GreenYellow; font-size: 70px;'>正确! </span>","null","","","","","","","","","","","","","","","","","","","","","","","","","feedback_test","",""
"","","","","","psychophysics","238","750272","0.0-9.0-0.0-0.0-0.0-0.64","796","","arrowleft","","","","","","","","","","","","","key","arrowleft","4.175990675990676","853.3333333333334","476","arrowleft","true","../../test_img/22.png","生人","matching_task","朋友","[""<img src=\""../../test_img/26.png\"" width=150 style=\""vertical-align:middle\"">---自我"",""<img src=\""../../test_img/22.png\"" width=150 style=\""vertical-align:middle\"">---朋友"",""<img src=\""../../test_img/15.png\"" width=150 style=\""vertical-align:middle\"">---生人""]","","",""
"","","","","","html-keyboard-response","239","750787","0.0-9.0-0.0-0.0-0.0-1.64","null","<span style='color:GreenYellow; font-size: 70px;'>正确! </span>","null","","","","","","","","","","","","","","","","","","","","","","","","","feedback_test","",""
"","","","","","psychophysics","240","752432","0.0-9.0-0.0-0.0-0.0-0.65","644","","arrowleft","","","","","","","","","","","","","key","arrowleft","4.16183206106894","853.3333333333334","476","arrowleft","true","../../test_img/26.png","生人","matching_task","自我","[""<img src=\""../../test_img/26.png\"" width=150 style=\""vertical-align:middle\"">---自我"",""<img src=\""../../test_img/22.png\"" width=150 style=\""vertical-align:middle\"">---朋友"",""<img src=\""../../test_img/15.png\"" width=150 style=\""vertical-align:middle\"">---生人""]","","",""
"","","","","","html-keyboard-response","241","752935","0.0-9.0-0.0-0.0-0.0-1.65","null","<span style='color:GreenYellow; font-size: 70px;'>正确! </span>","null","","","","","","","","","","","","","","","","","","","","","","","","","feedback_test","",""
"","","","","","psychophysics","242","754529","0.0-9.0-0.0-0.0-0.0-0.66","592","","arrowright","","","","","","","","","","","","","key","arrowright","4.166929133858207","853.3333333333334","476","arrowright","true","../../test_img/22.png","朋友","matching_task","朋友","[""<img src=\""../../test_img/26.png\"" width=150 style=\""vertical-align:middle\"">---自我"",""<img src=\""../../test_img/22.png\"" width=150 style=\""vertical-align:middle\"">---朋友"",""<img src=\""../../test_img/15.png\"" width=150 style=\""vertical-align:middle\"">---生人""]","","",""
"","","","","","html-keyboard-response","243","755035","0.0-9.0-0.0-0.0-0.0-1.66","null","<span style='color:GreenYellow; font-size: 70px;'>正确! </span>","null","","","","","","","","","","","","","","","","","","","","","","","","","feedback_test","",""
"","","","","","psychophysics","244","756632","0.0-9.0-0.0-0.0-0.0-0.67","594","","arrowleft","","","","","","","","","","","","","key","arrowleft","4.1886842105265","853.3333333333334","476","arrowleft","true","../../test_img/22.png","自我","matching_task","朋友","[""<img src=\""../../test_img/26.png\"" width=150 style=\""vertical-align:middle\"">---自我"",""<img src=\""../../test_img/22.png\"" width=150 style=\""vertical-align:middle\"">---朋友"",""<img src=\""../../test_img/15.png\"" width=150 style=\""vertical-align:middle\"">---生人""]","","",""
"","","","","","html-keyboard-response","245","757140","0.0-9.0-0.0-0.0-0.0-1.67","null","<span style='color:GreenYellow; font-size: 70px;'>正确! </span>","null","","","","","","","","","","","","","","","","","","","","","","","","","feedback_test","",""
"","","","","","psychophysics","246","758729","0.0-9.0-0.0-0.0-0.0-0.68","587","","arrowright","","","","","","","","","","","","","key","arrowright","4.167105263157895","853.3333333333334","476","arrowright","true","../../test_img/26.png","自我","matching_task","自我","[""<img src=\""../../test_img/26.png\"" width=150 style=\""vertical-align:middle\"">---自我"",""<img src=\""../../test_img/22.png\"" width=150 style=\""vertical-align:middle\"">---朋友"",""<img src=\""../../test_img/15.png\"" width=150 style=\""vertical-align:middle\"">---生人""]","","",""
"","","","","","html-keyboard-response","247","759234","0.0-9.0-0.0-0.0-0.0-1.68","null","<span style='color:GreenYellow; font-size: 70px;'>正确! </span>","null","","","","","","","","","","","","","","","","","","","","","","","","","feedback_test","",""
"","","","","","psychophysics","248","760801","0.0-9.0-0.0-0.0-0.0-0.69","562","","arrowleft","","","","","","","","","","","","","key","arrowleft","4.166844919786159","853.3333333333334","476","arrowright","false","../../test_img/15.png","生人","matching_task","生人","[""<img src=\""../../test_img/26.png\"" width=150 style=\""vertical-align:middle\"">---自我"",""<img src=\""../../test_img/22.png\"" width=150 style=\""vertical-align:middle\"">---朋友"",""<img src=\""../../test_img/15.png\"" width=150 style=\""vertical-align:middle\"">---生人""]","","",""
"","","","","","html-keyboard-response","249","761307","0.0-9.0-0.0-0.0-0.0-1.69","null","<span style='color:red; font-size: 70px;'>错误! </span>","null","","","","","","","","","","","","","","","","","","","","","","","","","feedback_test","",""
"","","","","","psychophysics","250","762983","0.0-9.0-0.0-0.0-0.0-0.70","674","","arrowright","","","","","","","","","","","","","key","arrowright","4.187719298245381","853.3333333333334","476","arrowright","true","../../test_img/15.png","生人","matching_task","生人","[""<img src=\""../../test_img/26.png\"" width=150 style=\""vertical-align:middle\"">---自我"",""<img src=\""../../test_img/22.png\"" width=150 style=\""vertical-align:middle\"">---朋友"",""<img src=\""../../test_img/15.png\"" width=150 style=\""vertical-align:middle\"">---生人""]","","",""
"","","","","","html-keyboard-response","251","763492","0.0-9.0-0.0-0.0-0.0-1.70","null","<span style='color:GreenYellow; font-size: 70px;'>正确! </span>","null","","","","","","","","","","","","","","","","","","","","","","","","","feedback_test","",""
"","","","","","psychophysics","252","765079","0.0-9.0-0.0-0.0-0.0-0.71","586","","arrowleft","","","","","","","","","","","","","key","arrowleft","4.166490765171442","853.3333333333334","476","arrowright","false","../../test_img/22.png","朋友","matching_task","朋友","[""<img src=\""../../test_img/26.png\"" width=150 style=\""vertical-align:middle\"">---自我"",""<img src=\""../../test_img/22.png\"" width=150 style=\""vertical-align:middle\"">---朋友"",""<img src=\""../../test_img/15.png\"" width=150 style=\""vertical-align:middle\"">---生人""]","","",""
"","","","","","html-keyboard-response","253","765585","0.0-9.0-0.0-0.0-0.0-1.71","null","<span style='color:red; font-size: 70px;'>错误! </span>","null","","","","","","","","","","","","","","","","","","","","","","","","","feedback_test","",""
