"success","timeout","failed_images","failed_audio","failed_video","trial_type","trial_index","time_elapsed","internal_node_id","rt","stimulus","response","value","item_width_mm","item_height_mm","item_width_px","px2mm","view_dist_mm","item_width_deg","px2deg","scale_factor","win_width_deg","win_height_deg","view_history","response_type","key_press","avg_frame_time","center_x","center_y","correct_response","correct","Image","word","condition","shape","association","screen_id","LeftLable","RightLable"
"true","false","[]","[]","[]","preload","0","822","0.0-0.0","","","","","","","","","","","","","","","","","","","","","","","","","","","","","",""
"","","","","","html-keyboard-response","1","41479","0.0-1.0","40656","
     <p>您好，欢迎参加本次实验。</p>
     <p>为充分保障您的权利，请确保您已经知晓并同意《参与实验同意书》以及《数据公开知情同意书》。</p>
     <p>如果您未见过上述内容，请咨询实验员。</p>
     <p>如果您选择继续实验，则表示您已经清楚两份知情同意书的内容并同意。</p>
     <p> <div style = ""color: green""><按任意键至下页></div> </p>
     "," ","","","","","","","","","","","","","","","","","","","","","","","","","","",""
"","","","","","html-keyboard-response","2","42958","0.0-2.0","1478","
     <p>本实验首先需要您填写一些基本个人信息。</p>
     <p> <div style = ""color: green""><按任意键至下页></div></p>
     "," ","","","","","","","","","","","","","","","","","","","","","","","","","","",""
"","","","","","call-function","3","42958","0.0-3.0-0.0","","","","","","","","","","","","","","","","","","","","","","","","","","","","","",""
"","","","","","survey-html-form","4","48742","0.0-3.0-1.0","5783","","{""Q0"":""15""}","","","","","","","","","","","","","","","","","","","","","","","","","","",""
"","","","","","html-button-response","5","49870","0.0-3.0-2.0","1126","<p style = 'color : white'>您的性别</p>","0","","","","","","","","","","","","","","","","","","","","","","","","","","",""
"","","","","","survey-html-form","6","58006","0.0-3.0-3.0","8135","","{""Q0"":""2001""}","","","","","","","","","","","","","","","","","","","","","","","","","","",""
"","","","","","survey-html-form","7","61950","0.0-3.0-4.0","3943","","{""Q0"":""5""}","","","","","","","","","","","","","","","","","","","","","","","","","","",""
"","","","","","virtual-chinrest","8","246934","0.0-4.0","184983","","","","85.6","53.98","477.69733523637814","5.577239506754621","512.16","9.553946704727561","50","0.8122297768481515","38.4","19.06","","","","","","","","","","","","","","","",""
"true","","","","","fullscreen","9","250935","0.0-5.0","","","","","","","","","","","","","","","","","","","","","","","","","","","","","",""
"","","","","","instructions","10","318478","0.0-6.0","67542","","","","","","","","","","","","","","[{""page_index"":0,""viewing_time"":15790},{""page_index"":1,""viewing_time"":11488},{""page_index"":2,""viewing_time"":31520},{""page_index"":3,""viewing_time"":5696},{""page_index"":4,""viewing_time"":3048}]","","","","","","","","","","","","","","",""
"","","","","","psychophysics","11","320751","0.0-7.0-0.0-0.0","1266","","arrowright","","","","","","","","","","","","","key","arrowright","16.6659259259261","960","536","arrowright","true","../../test_img/26.png","朋友","prac_matching_task","朋友","[""<img src=\""../../test_img/26.png\"" width=150 style=\""vertical-align:middle\"">---朋友"",""<img src=\""../../test_img/22.png\"" width=150 style=\""vertical-align:middle\"">---自我"",""<img src=\""../../test_img/15.png\"" width=150 style=\""vertical-align:middle\"">---生人""]","","",""
"","","","","","html-keyboard-response","12","321056","0.0-7.0-0.0-1.0","null","<span style='color:GreenYellow; font-size: 70px;'>正确! </span>","null","","","","","","","","","","","","","","","","","","","","","","","","","feedback_test","",""
"","","","","","psychophysics","13","322901","0.0-7.0-0.0-0.1","832","","arrowright","","","","","","","","","","","","","key","arrowright","16.667889908256775","960","536","arrowright","true","../../test_img/22.png","自我","prac_matching_task","自我","[""<img src=\""../../test_img/26.png\"" width=150 style=\""vertical-align:middle\"">---朋友"",""<img src=\""../../test_img/22.png\"" width=150 style=\""vertical-align:middle\"">---自我"",""<img src=\""../../test_img/15.png\"" width=150 style=\""vertical-align:middle\"">---生人""]","","",""
"","","","","","html-keyboard-response","14","323207","0.0-7.0-0.0-1.1","null","<span style='color:GreenYellow; font-size: 70px;'>正确! </span>","null","","","","","","","","","","","","","","","","","","","","","","","","","feedback_test","",""
"","","","","","psychophysics","15","325655","0.0-7.0-0.0-0.2","1435","","arrowleft","","","","","","","","","","","","","key","arrowleft","16.666438356164704","960","536","arrowleft","true","../../test_img/26.png","自我","prac_matching_task","朋友","[""<img src=\""../../test_img/26.png\"" width=150 style=\""vertical-align:middle\"">---朋友"",""<img src=\""../../test_img/22.png\"" width=150 style=\""vertical-align:middle\"">---自我"",""<img src=\""../../test_img/15.png\"" width=150 style=\""vertical-align:middle\"">---生人""]","","",""
"","","","","","html-keyboard-response","16","325963","0.0-7.0-0.0-1.2","null","<span style='color:GreenYellow; font-size: 70px;'>正确! </span>","null","","","","","","","","","","","","","","","","","","","","","","","","","feedback_test","",""
"","","","","","psychophysics","17","328046","0.0-7.0-0.0-0.3","1076","","arrowright","","","","","","","","","","","","","key","arrowright","16.66693548387106","960","536","arrowleft","false","../../test_img/15.png","朋友","prac_matching_task","生人","[""<img src=\""../../test_img/26.png\"" width=150 style=\""vertical-align:middle\"">---朋友"",""<img src=\""../../test_img/22.png\"" width=150 style=\""vertical-align:middle\"">---自我"",""<img src=\""../../test_img/15.png\"" width=150 style=\""vertical-align:middle\"">---生人""]","","",""
"","","","","","html-keyboard-response","18","328361","0.0-7.0-0.0-1.3","null","<span style='color:red; font-size: 70px;'>错误! </span>","null","","","","","","","","","","","","","","","","","","","","","","","","","feedback_test","",""
"","","","","","psychophysics","19","330430","0.0-7.0-0.0-0.4","1061","","arrowright","","","","","","","","","","","","","key","arrowright","16.66747967479656","960","536","arrowright","true","../../test_img/22.png","自我","prac_matching_task","自我","[""<img src=\""../../test_img/26.png\"" width=150 style=\""vertical-align:middle\"">---朋友"",""<img src=\""../../test_img/22.png\"" width=150 style=\""vertical-align:middle\"">---自我"",""<img src=\""../../test_img/15.png\"" width=150 style=\""vertical-align:middle\"">---生人""]","","",""
"","","","","","html-keyboard-response","20","330746","0.0-7.0-0.0-1.4","null","<span style='color:GreenYellow; font-size: 70px;'>正确! </span>","null","","","","","","","","","","","","","","","","","","","","","","","","","feedback_test","",""
"","","","","","psychophysics","21","332965","0.0-7.0-0.0-0.5","1213","","arrowleft","","","","","","","","","","","","","key","arrowleft","16.667424242424065","960","536","arrowleft","true","../../test_img/26.png","生人","prac_matching_task","朋友","[""<img src=\""../../test_img/26.png\"" width=150 style=\""vertical-align:middle\"">---朋友"",""<img src=\""../../test_img/22.png\"" width=150 style=\""vertical-align:middle\"">---自我"",""<img src=\""../../test_img/15.png\"" width=150 style=\""vertical-align:middle\"">---生人""]","","",""
"","","","","","html-keyboard-response","22","333268","0.0-7.0-0.0-1.5","null","<span style='color:GreenYellow; font-size: 70px;'>正确! </span>","null","","","","","","","","","","","","","","","","","","","","","","","","","feedback_test","",""
"","","","","","psychophysics","23","335310","0.0-7.0-0.0-0.6","1040","","arrowright","","","","","","","","","","","","","key","arrowright","16.65702479338843","960","536","arrowright","true","../../test_img/15.png","生人","prac_matching_task","生人","[""<img src=\""../../test_img/26.png\"" width=150 style=\""vertical-align:middle\"">---朋友"",""<img src=\""../../test_img/22.png\"" width=150 style=\""vertical-align:middle\"">---自我"",""<img src=\""../../test_img/15.png\"" width=150 style=\""vertical-align:middle\"">---生人""]","","",""
"","","","","","html-keyboard-response","24","335611","0.0-7.0-0.0-1.6","null","<span style='color:GreenYellow; font-size: 70px;'>正确! </span>","null","","","","","","","","","","","","","","","","","","","","","","","","","feedback_test","",""
"","","","","","psychophysics","25","337390","0.0-7.0-0.0-0.7","776","","arrowright","","","","","","","","","","","","","key","arrowright","16.66792452830178","960","536","arrowright","true","../../test_img/15.png","生人","prac_matching_task","生人","[""<img src=\""../../test_img/26.png\"" width=150 style=\""vertical-align:middle\"">---朋友"",""<img src=\""../../test_img/22.png\"" width=150 style=\""vertical-align:middle\"">---自我"",""<img src=\""../../test_img/15.png\"" width=150 style=\""vertical-align:middle\"">---生人""]","","",""
"","","","","","html-keyboard-response","26","337692","0.0-7.0-0.0-1.7","null","<span style='color:GreenYellow; font-size: 70px;'>正确! </span>","null","","","","","","","","","","","","","","","","","","","","","","","","","feedback_test","",""
"","","","","","psychophysics","27","340200","0.0-7.0-0.0-0.8","null","","null","","","","","","","","","","","","","key","null","16.666442953020056","960","536","arrowleft","false","../../test_img/22.png","朋友","prac_matching_task","自我","[""<img src=\""../../test_img/26.png\"" width=150 style=\""vertical-align:middle\"">---朋友"",""<img src=\""../../test_img/22.png\"" width=150 style=\""vertical-align:middle\"">---自我"",""<img src=\""../../test_img/15.png\"" width=150 style=\""vertical-align:middle\"">---生人""]","","",""
"","","","","","html-keyboard-response","28","340507","0.0-7.0-0.0-1.8","null","<span class='add_' style='color:yellow; font-size: 70px;'> 太慢! </span>","null","","","","","","","","","","","","","","","","","","","","","","","","","feedback_test","",""
"","","","","","psychophysics","29","342510","0.0-7.0-0.0-0.9","990","","arrowleft","","","","","","","","","","","","","key","arrowleft","16.6672268907565","960","536","arrowleft","true","../../test_img/15.png","自我","prac_matching_task","生人","[""<img src=\""../../test_img/26.png\"" width=150 style=\""vertical-align:middle\"">---朋友"",""<img src=\""../../test_img/22.png\"" width=150 style=\""vertical-align:middle\"">---自我"",""<img src=\""../../test_img/15.png\"" width=150 style=\""vertical-align:middle\"">---生人""]","","",""
"","","","","","html-keyboard-response","30","342813","0.0-7.0-0.0-1.9","null","<span style='color:GreenYellow; font-size: 70px;'>正确! </span>","null","","","","","","","","","","","","","","","","","","","","","","","","","feedback_test","",""
"","","","","","psychophysics","31","344911","0.0-7.0-0.0-0.10","1091","","arrowleft","","","","","","","","","","","","","key","arrowleft","16.666400000000372","960","536","arrowleft","true","../../test_img/22.png","生人","prac_matching_task","自我","[""<img src=\""../../test_img/26.png\"" width=150 style=\""vertical-align:middle\"">---朋友"",""<img src=\""../../test_img/22.png\"" width=150 style=\""vertical-align:middle\"">---自我"",""<img src=\""../../test_img/15.png\"" width=150 style=\""vertical-align:middle\"">---生人""]","","",""
"","","","","","html-keyboard-response","32","345225","0.0-7.0-0.0-1.10","null","<span style='color:GreenYellow; font-size: 70px;'>正确! </span>","null","","","","","","","","","","","","","","","","","","","","","","","","","feedback_test","",""
"","","","","","psychophysics","33","347310","0.0-7.0-0.0-0.11","1081","","arrowleft","","","","","","","","","","","","","key","arrowleft","16.66693548387106","960","536","arrowright","false","../../test_img/26.png","朋友","prac_matching_task","朋友","[""<img src=\""../../test_img/26.png\"" width=150 style=\""vertical-align:middle\"">---朋友"",""<img src=\""../../test_img/22.png\"" width=150 style=\""vertical-align:middle\"">---自我"",""<img src=\""../../test_img/15.png\"" width=150 style=\""vertical-align:middle\"">---生人""]","","",""
"","","","","","html-keyboard-response","34","347621","0.0-7.0-0.0-1.11","null","<span style='color:red; font-size: 70px;'>错误! </span>","null","","","","","","","","","","","","","","","","","","","","","","","","","feedback_test","",""
"","","","","","psychophysics","35","349582","0.0-7.0-0.0-0.12","948","","arrowright","","","","","","","","","","","","","key","arrowright","16.667241379310045","960","536","arrowleft","false","../../test_img/15.png","朋友","prac_matching_task","生人","[""<img src=\""../../test_img/26.png\"" width=150 style=\""vertical-align:middle\"">---朋友"",""<img src=\""../../test_img/22.png\"" width=150 style=\""vertical-align:middle\"">---自我"",""<img src=\""../../test_img/15.png\"" width=150 style=\""vertical-align:middle\"">---生人""]","","",""
"","","","","","html-keyboard-response","36","349893","0.0-7.0-0.0-1.12","null","<span style='color:red; font-size: 70px;'>错误! </span>","null","","","","","","","","","","","","","","","","","","","","","","","","","feedback_test","",""
"","","","","","psychophysics","37","352396","0.0-7.0-0.0-0.13","null","","null","","","","","","","","","","","","","key","null","16.666442953020056","960","536","arrowright","false","../../test_img/15.png","生人","prac_matching_task","生人","[""<img src=\""../../test_img/26.png\"" width=150 style=\""vertical-align:middle\"">---朋友"",""<img src=\""../../test_img/22.png\"" width=150 style=\""vertical-align:middle\"">---自我"",""<img src=\""../../test_img/15.png\"" width=150 style=\""vertical-align:middle\"">---生人""]","","",""
"","","","","","html-keyboard-response","38","352705","0.0-7.0-0.0-1.13","null","<span class='add_' style='color:yellow; font-size: 70px;'> 太慢! </span>","null","","","","","","","","","","","","","","","","","","","","","","","","","feedback_test","",""
"","","","","","psychophysics","39","355219","0.0-7.0-0.0-0.14","null","","null","","","","","","","","","","","","","key","null","16.66711409395989","960","536","arrowleft","false","../../test_img/22.png","生人","prac_matching_task","自我","[""<img src=\""../../test_img/26.png\"" width=150 style=\""vertical-align:middle\"">---朋友"",""<img src=\""../../test_img/22.png\"" width=150 style=\""vertical-align:middle\"">---自我"",""<img src=\""../../test_img/15.png\"" width=150 style=\""vertical-align:middle\"">---生人""]","","",""
"","","","","","html-keyboard-response","40","355532","0.0-7.0-0.0-1.14","null","<span class='add_' style='color:yellow; font-size: 70px;'> 太慢! </span>","null","","","","","","","","","","","","","","","","","","","","","","","","","feedback_test","",""
"","","","","","psychophysics","41","358038","0.0-7.0-0.0-0.15","null","","null","","","","","","","","","","","","","key","null","16.666266666666683","960","536","arrowleft","false","../../test_img/15.png","自我","prac_matching_task","生人","[""<img src=\""../../test_img/26.png\"" width=150 style=\""vertical-align:middle\"">---朋友"",""<img src=\""../../test_img/22.png\"" width=150 style=\""vertical-align:middle\"">---自我"",""<img src=\""../../test_img/15.png\"" width=150 style=\""vertical-align:middle\"">---生人""]","","",""
"","","","","","html-keyboard-response","42","358345","0.0-7.0-0.0-1.15","null","<span class='add_' style='color:yellow; font-size: 70px;'> 太慢! </span>","null","","","","","","","","","","","","","","","","","","","","","","","","","feedback_test","",""
"","","","","","psychophysics","43","360445","0.0-7.0-0.0-0.16","1093","","arrowleft","","","","","","","","","","","","","key","arrowleft","16.666399999999907","960","536","arrowleft","true","../../test_img/26.png","生人","prac_matching_task","朋友","[""<img src=\""../../test_img/26.png\"" width=150 style=\""vertical-align:middle\"">---朋友"",""<img src=\""../../test_img/22.png\"" width=150 style=\""vertical-align:middle\"">---自我"",""<img src=\""../../test_img/15.png\"" width=150 style=\""vertical-align:middle\"">---生人""]","","",""
"","","","","","html-keyboard-response","44","360747","0.0-7.0-0.0-1.16","null","<span style='color:GreenYellow; font-size: 70px;'>正确! </span>","null","","","","","","","","","","","","","","","","","","","","","","","","","feedback_test","",""
"","","","","","psychophysics","45","363029","0.0-7.0-0.0-0.17","1277","","arrowright","","","","","","","","","","","","","key","arrowright","16.66691176470554","960","536","arrowright","true","../../test_img/22.png","自我","prac_matching_task","自我","[""<img src=\""../../test_img/26.png\"" width=150 style=\""vertical-align:middle\"">---朋友"",""<img src=\""../../test_img/22.png\"" width=150 style=\""vertical-align:middle\"">---自我"",""<img src=\""../../test_img/15.png\"" width=150 style=\""vertical-align:middle\"">---生人""]","","",""
"","","","","","html-keyboard-response","46","363341","0.0-7.0-0.0-1.17","null","<span style='color:GreenYellow; font-size: 70px;'>正确! </span>","null","","","","","","","","","","","","","","","","","","","","","","","","","feedback_test","",""
"","","","","","psychophysics","47","365573","0.0-7.0-0.0-0.18","1226","","arrowleft","","","","","","","","","","","","","key","arrowleft","16.66616541353366","960","536","arrowleft","true","../../test_img/22.png","朋友","prac_matching_task","自我","[""<img src=\""../../test_img/26.png\"" width=150 style=\""vertical-align:middle\"">---朋友"",""<img src=\""../../test_img/22.png\"" width=150 style=\""vertical-align:middle\"">---自我"",""<img src=\""../../test_img/15.png\"" width=150 style=\""vertical-align:middle\"">---生人""]","","",""
"","","","","","html-keyboard-response","48","365883","0.0-7.0-0.0-1.18","null","<span style='color:GreenYellow; font-size: 70px;'>正确! </span>","null","","","","","","","","","","","","","","","","","","","","","","","","","feedback_test","",""
"","","","","","psychophysics","49","368198","0.0-7.0-0.0-0.19","1312","","arrowleft","","","","","","","","","","","","","key","arrowleft","16.666666666666668","960","536","arrowleft","true","../../test_img/26.png","自我","prac_matching_task","朋友","[""<img src=\""../../test_img/26.png\"" width=150 style=\""vertical-align:middle\"">---朋友"",""<img src=\""../../test_img/22.png\"" width=150 style=\""vertical-align:middle\"">---自我"",""<img src=\""../../test_img/15.png\"" width=150 style=\""vertical-align:middle\"">---生人""]","","",""
"","","","","","html-keyboard-response","50","368511","0.0-7.0-0.0-1.19","null","<span style='color:GreenYellow; font-size: 70px;'>正确! </span>","null","","","","","","","","","","","","","","","","","","","","","","","","","feedback_test","",""
"","","","","","psychophysics","51","370710","0.0-7.0-0.0-0.20","1195","","arrowright","","","","","","","","","","","","","key","arrowright","16.666412213740813","960","536","arrowright","true","../../test_img/26.png","朋友","prac_matching_task","朋友","[""<img src=\""../../test_img/26.png\"" width=150 style=\""vertical-align:middle\"">---朋友"",""<img src=\""../../test_img/22.png\"" width=150 style=\""vertical-align:middle\"">---自我"",""<img src=\""../../test_img/15.png\"" width=150 style=\""vertical-align:middle\"">---生人""]","","",""
"","","","","","html-keyboard-response","52","371012","0.0-7.0-0.0-1.20","null","<span style='color:GreenYellow; font-size: 70px;'>正确! </span>","null","","","","","","","","","","","","","","","","","","","","","","","","","feedback_test","",""
"","","","","","psychophysics","53","372797","0.0-7.0-0.0-0.21","781","","arrowright","","","","","","","","","","","","","key","arrowright","16.66792452830178","960","536","arrowright","true","../../test_img/15.png","生人","prac_matching_task","生人","[""<img src=\""../../test_img/26.png\"" width=150 style=\""vertical-align:middle\"">---朋友"",""<img src=\""../../test_img/22.png\"" width=150 style=\""vertical-align:middle\"">---自我"",""<img src=\""../../test_img/15.png\"" width=150 style=\""vertical-align:middle\"">---生人""]","","",""
"","","","","","html-keyboard-response","54","373107","0.0-7.0-0.0-1.21","null","<span style='color:GreenYellow; font-size: 70px;'>正确! </span>","null","","","","","","","","","","","","","","","","","","","","","","","","","feedback_test","",""
"","","","","","psychophysics","55","375617","0.0-7.0-0.0-0.22","null","","null","","","","","","","","","","","","","key","null","16.66778523489933","960","536","arrowright","false","../../test_img/26.png","朋友","prac_matching_task","朋友","[""<img src=\""../../test_img/26.png\"" width=150 style=\""vertical-align:middle\"">---朋友"",""<img src=\""../../test_img/22.png\"" width=150 style=\""vertical-align:middle\"">---自我"",""<img src=\""../../test_img/15.png\"" width=150 style=\""vertical-align:middle\"">---生人""]","","",""
"","","","","","html-keyboard-response","56","375924","0.0-7.0-0.0-1.22","null","<span class='add_' style='color:yellow; font-size: 70px;'> 太慢! </span>","null","","","","","","","","","","","","","","","","","","","","","","","","","feedback_test","",""
"","","","","","psychophysics","57","377791","0.0-7.0-0.0-0.23","855","","arrowright","","","","","","","","","","","","","key","arrowright","16.667567567567357","960","536","arrowright","true","../../test_img/22.png","自我","prac_matching_task","自我","[""<img src=\""../../test_img/26.png\"" width=150 style=\""vertical-align:middle\"">---朋友"",""<img src=\""../../test_img/22.png\"" width=150 style=\""vertical-align:middle\"">---自我"",""<img src=\""../../test_img/15.png\"" width=150 style=\""vertical-align:middle\"">---生人""]","","",""
"","","","","","html-keyboard-response","58","378094","0.0-7.0-0.0-1.23","null","<span style='color:GreenYellow; font-size: 70px;'>正确! </span>","null","","","","","","","","","","","","","","","","","","","","","","","","","feedback_test","",""
"","","","","","html-keyboard-response","59","395248","0.0-7.0-1.0-0.0","17152","<style>.context{color:white; font-size: 35px; line-height:40px}</style>                          <div><p class='context'>您正确回答了67% 的试次。</p ><p class='context'>您的平均反应时为1090毫秒。</p >"," ","","","","","","","","","","","","","","","","","","","","","","","","","","",""
"","","","","","instructions","60","408710","0.0-7.0-1.0-1.0","13461","","","","","","","","","","","","","","[{""page_index"":0,""viewing_time"":2197},{""page_index"":1,""viewing_time"":8616},{""page_index"":2,""viewing_time"":1648},{""page_index"":3,""viewing_time"":1000}]","","","","","","","","","","","","","","",""
"","","","","","psychophysics","61","410966","0.0-7.1-0.1-0.24","1246","","arrowleft","","","","","","","","","","","","","key","arrowleft","16.667164179104653","960","536","arrowleft","true","../../test_img/22.png","生人","prac_matching_task","自我","[""<img src=\""../../test_img/26.png\"" width=150 style=\""vertical-align:middle\"">---朋友"",""<img src=\""../../test_img/22.png\"" width=150 style=\""vertical-align:middle\"">---自我"",""<img src=\""../../test_img/15.png\"" width=150 style=\""vertical-align:middle\"">---生人""]","","",""
"","","","","","html-keyboard-response","62","411279","0.0-7.1-0.1-1.24","null","<span style='color:GreenYellow; font-size: 70px;'>正确! </span>","null","","","","","","","","","","","","","","","","","","","","","","","","","feedback_test","",""
"","","","","","psychophysics","63","413374","0.0-7.1-0.1-0.25","1092","","arrowleft","","","","","","","","","","","","","key","arrowleft","16.66719999999972","960","536","arrowright","false","../../test_img/26.png","朋友","prac_matching_task","朋友","[""<img src=\""../../test_img/26.png\"" width=150 style=\""vertical-align:middle\"">---朋友"",""<img src=\""../../test_img/22.png\"" width=150 style=\""vertical-align:middle\"">---自我"",""<img src=\""../../test_img/15.png\"" width=150 style=\""vertical-align:middle\"">---生人""]","","",""
"","","","","","html-keyboard-response","64","413678","0.0-7.1-0.1-1.25","null","<span style='color:red; font-size: 70px;'>错误! </span>","null","","","","","","","","","","","","","","","","","","","","","","","","","feedback_test","",""
"","","","","","psychophysics","65","415391","0.0-7.1-0.1-0.26","705","","arrowright","","","","","","","","","","","","","key","arrowright","16.666666666666668","960","536","arrowright","true","../../test_img/15.png","生人","prac_matching_task","生人","[""<img src=\""../../test_img/26.png\"" width=150 style=\""vertical-align:middle\"">---朋友"",""<img src=\""../../test_img/22.png\"" width=150 style=\""vertical-align:middle\"">---自我"",""<img src=\""../../test_img/15.png\"" width=150 style=\""vertical-align:middle\"">---生人""]","","",""
"","","","","","html-keyboard-response","66","415692","0.0-7.1-0.1-1.26","null","<span style='color:GreenYellow; font-size: 70px;'>正确! </span>","null","","","","","","","","","","","","","","","","","","","","","","","","","feedback_test","",""
"","","","","","psychophysics","67","417456","0.0-7.1-0.1-0.27","754","","arrowleft","","","","","","","","","","","","","key","arrowleft","16.666666666666668","960","536","arrowleft","true","../../test_img/15.png","自我","prac_matching_task","生人","[""<img src=\""../../test_img/26.png\"" width=150 style=\""vertical-align:middle\"">---朋友"",""<img src=\""../../test_img/22.png\"" width=150 style=\""vertical-align:middle\"">---自我"",""<img src=\""../../test_img/15.png\"" width=150 style=\""vertical-align:middle\"">---生人""]","","",""
"","","","","","html-keyboard-response","68","417771","0.0-7.1-0.1-1.27","null","<span style='color:GreenYellow; font-size: 70px;'>正确! </span>","null","","","","","","","","","","","","","","","","","","","","","","","","","feedback_test","",""
"","","","","","psychophysics","69","419894","0.0-7.1-0.1-0.28","1108","","arrowleft","","","","","","","","","","","","","key","arrowleft","16.666666666666668","960","536","arrowleft","true","../../test_img/26.png","生人","prac_matching_task","朋友","[""<img src=\""../../test_img/26.png\"" width=150 style=\""vertical-align:middle\"">---朋友"",""<img src=\""../../test_img/22.png\"" width=150 style=\""vertical-align:middle\"">---自我"",""<img src=\""../../test_img/15.png\"" width=150 style=\""vertical-align:middle\"">---生人""]","","",""
"","","","","","html-keyboard-response","70","420204","0.0-7.1-0.1-1.28","null","<span style='color:GreenYellow; font-size: 70px;'>正确! </span>","null","","","","","","","","","","","","","","","","","","","","","","","","","feedback_test","",""
"","","","","","psychophysics","71","422007","0.0-7.1-0.1-0.29","789","","arrowright","","","","","","","","","","","","","key","arrowright","16.666355140187353","960","536","arrowright","true","../../test_img/22.png","自我","prac_matching_task","自我","[""<img src=\""../../test_img/26.png\"" width=150 style=\""vertical-align:middle\"">---朋友"",""<img src=\""../../test_img/22.png\"" width=150 style=\""vertical-align:middle\"">---自我"",""<img src=\""../../test_img/15.png\"" width=150 style=\""vertical-align:middle\"">---生人""]","","",""
"","","","","","html-keyboard-response","72","422308","0.0-7.1-0.1-1.29","null","<span style='color:GreenYellow; font-size: 70px;'>正确! </span>","null","","","","","","","","","","","","","","","","","","","","","","","","","feedback_test","",""
"","","","","","psychophysics","73","424440","0.0-7.1-0.1-0.30","1127","","arrowleft","","","","","","","","","","","","","key","arrowleft","16.66771653543298","960","536","arrowleft","true","../../test_img/15.png","朋友","prac_matching_task","生人","[""<img src=\""../../test_img/26.png\"" width=150 style=\""vertical-align:middle\"">---朋友"",""<img src=\""../../test_img/22.png\"" width=150 style=\""vertical-align:middle\"">---自我"",""<img src=\""../../test_img/15.png\"" width=150 style=\""vertical-align:middle\"">---生人""]","","",""
"","","","","","html-keyboard-response","74","424742","0.0-7.1-0.1-1.30","null","<span style='color:GreenYellow; font-size: 70px;'>正确! </span>","null","","","","","","","","","","","","","","","","","","","","","","","","","feedback_test","",""
"","","","","","psychophysics","75","426677","0.0-7.1-0.1-0.31","932","","arrowleft","","","","","","","","","","","","","key","arrowleft","16.666086956521536","960","536","arrowleft","true","../../test_img/26.png","自我","prac_matching_task","朋友","[""<img src=\""../../test_img/26.png\"" width=150 style=\""vertical-align:middle\"">---朋友"",""<img src=\""../../test_img/22.png\"" width=150 style=\""vertical-align:middle\"">---自我"",""<img src=\""../../test_img/15.png\"" width=150 style=\""vertical-align:middle\"">---生人""]","","",""
"","","","","","html-keyboard-response","76","426990","0.0-7.1-0.1-1.31","null","<span style='color:GreenYellow; font-size: 70px;'>正确! </span>","null","","","","","","","","","","","","","","","","","","","","","","","","","feedback_test","",""
"","","","","","psychophysics","77","428678","0.0-7.1-0.1-0.32","685","","arrowright","","","","","","","","","","","","","key","arrowright","16.665999999999766","960","536","arrowright","true","../../test_img/22.png","自我","prac_matching_task","自我","[""<img src=\""../../test_img/26.png\"" width=150 style=\""vertical-align:middle\"">---朋友"",""<img src=\""../../test_img/22.png\"" width=150 style=\""vertical-align:middle\"">---自我"",""<img src=\""../../test_img/15.png\"" width=150 style=\""vertical-align:middle\"">---生人""]","","",""
"","","","","","html-keyboard-response","78","428994","0.0-7.1-0.1-1.32","null","<span style='color:GreenYellow; font-size: 70px;'>正确! </span>","null","","","","","","","","","","","","","","","","","","","","","","","","","feedback_test","",""
"","","","","","psychophysics","79","430790","0.0-7.1-0.1-0.33","787","","arrowright","","","","","","","","","","","","","key","arrowright","16.665420560747773","960","536","arrowright","true","../../test_img/26.png","朋友","prac_matching_task","朋友","[""<img src=\""../../test_img/26.png\"" width=150 style=\""vertical-align:middle\"">---朋友"",""<img src=\""../../test_img/22.png\"" width=150 style=\""vertical-align:middle\"">---自我"",""<img src=\""../../test_img/15.png\"" width=150 style=\""vertical-align:middle\"">---生人""]","","",""
"","","","","","html-keyboard-response","80","431102","0.0-7.1-0.1-1.33","null","<span style='color:GreenYellow; font-size: 70px;'>正确! </span>","null","","","","","","","","","","","","","","","","","","","","","","","","","feedback_test","",""
"","","","","","psychophysics","81","432917","0.0-7.1-0.1-0.34","813","","arrowleft","","","","","","","","","","","","","key","arrowleft","16.66822429906542","960","536","arrowleft","true","../../test_img/22.png","朋友","prac_matching_task","自我","[""<img src=\""../../test_img/26.png\"" width=150 style=\""vertical-align:middle\"">---朋友"",""<img src=\""../../test_img/22.png\"" width=150 style=\""vertical-align:middle\"">---自我"",""<img src=\""../../test_img/15.png\"" width=150 style=\""vertical-align:middle\"">---生人""]","","",""
"","","","","","html-keyboard-response","82","433227","0.0-7.1-0.1-1.34","null","<span style='color:GreenYellow; font-size: 70px;'>正确! </span>","null","","","","","","","","","","","","","","","","","","","","","","","","","feedback_test","",""
"","","","","","psychophysics","83","435009","0.0-7.1-0.1-0.35","773","","arrowright","","","","","","","","","","","","","key","arrowright","16.666037735849386","960","536","arrowright","true","../../test_img/15.png","生人","prac_matching_task","生人","[""<img src=\""../../test_img/26.png\"" width=150 style=\""vertical-align:middle\"">---朋友"",""<img src=\""../../test_img/22.png\"" width=150 style=\""vertical-align:middle\"">---自我"",""<img src=\""../../test_img/15.png\"" width=150 style=\""vertical-align:middle\"">---生人""]","","",""
"","","","","","html-keyboard-response","84","435311","0.0-7.1-0.1-1.35","null","<span style='color:GreenYellow; font-size: 70px;'>正确! </span>","null","","","","","","","","","","","","","","","","","","","","","","","","","feedback_test","",""
"","","","","","psychophysics","85","437070","0.0-7.1-0.1-0.36","751","","arrowright","","","","","","","","","","","","","key","arrowright","16.666666666666668","960","536","arrowleft","false","../../test_img/15.png","朋友","prac_matching_task","生人","[""<img src=\""../../test_img/26.png\"" width=150 style=\""vertical-align:middle\"">---朋友"",""<img src=\""../../test_img/22.png\"" width=150 style=\""vertical-align:middle\"">---自我"",""<img src=\""../../test_img/15.png\"" width=150 style=\""vertical-align:middle\"">---生人""]","","",""
"","","","","","html-keyboard-response","86","437383","0.0-7.1-0.1-1.36","null","<span style='color:red; font-size: 70px;'>错误! </span>","null","","","","","","","","","","","","","","","","","","","","","","","","","feedback_test","",""
"","","","","","psychophysics","87","439638","0.0-7.1-0.1-0.37","1252","","arrowleft","","","","","","","","","","","","","key","arrowleft","16.6659259259261","960","536","arrowleft","true","../../test_img/26.png","自我","prac_matching_task","朋友","[""<img src=\""../../test_img/26.png\"" width=150 style=\""vertical-align:middle\"">---朋友"",""<img src=\""../../test_img/22.png\"" width=150 style=\""vertical-align:middle\"">---自我"",""<img src=\""../../test_img/15.png\"" width=150 style=\""vertical-align:middle\"">---生人""]","","",""
"","","","","","html-keyboard-response","88","439948","0.0-7.1-0.1-1.37","null","<span style='color:GreenYellow; font-size: 70px;'>正确! </span>","null","","","","","","","","","","","","","","","","","","","","","","","","","feedback_test","",""
"","","","","","psychophysics","89","441597","0.0-7.1-0.1-0.38","645","","arrowright","","","","","","","","","","","","","key","arrowright","16.667346938775747","960","536","arrowright","true","../../test_img/15.png","生人","prac_matching_task","生人","[""<img src=\""../../test_img/26.png\"" width=150 style=\""vertical-align:middle\"">---朋友"",""<img src=\""../../test_img/22.png\"" width=150 style=\""vertical-align:middle\"">---自我"",""<img src=\""../../test_img/15.png\"" width=150 style=\""vertical-align:middle\"">---生人""]","","",""
"","","","","","html-keyboard-response","90","441898","0.0-7.1-0.1-1.38","null","<span style='color:GreenYellow; font-size: 70px;'>正确! </span>","null","","","","","","","","","","","","","","","","","","","","","","","","","feedback_test","",""
"","","","","","psychophysics","91","443575","0.0-7.1-0.1-0.39","673","","arrowright","","","","","","","","","","","","","key","arrowright","16.667060000000056","960","536","arrowright","true","../../test_img/15.png","生人","prac_matching_task","生人","[""<img src=\""../../test_img/26.png\"" width=150 style=\""vertical-align:middle\"">---朋友"",""<img src=\""../../test_img/22.png\"" width=150 style=\""vertical-align:middle\"">---自我"",""<img src=\""../../test_img/15.png\"" width=150 style=\""vertical-align:middle\"">---生人""]","","",""
"","","","","","html-keyboard-response","92","443884","0.0-7.1-0.1-1.39","null","<span style='color:GreenYellow; font-size: 70px;'>正确! </span>","null","","","","","","","","","","","","","","","","","","","","","","","","","feedback_test","",""
"","","","","","psychophysics","93","445685","0.0-7.1-0.1-0.40","799","","arrowright","","","","","","","","","","","","","key","arrowright","16.66553271028037","960","536","arrowright","true","../../test_img/26.png","朋友","prac_matching_task","朋友","[""<img src=\""../../test_img/26.png\"" width=150 style=\""vertical-align:middle\"">---朋友"",""<img src=\""../../test_img/22.png\"" width=150 style=\""vertical-align:middle\"">---自我"",""<img src=\""../../test_img/15.png\"" width=150 style=\""vertical-align:middle\"">---生人""]","","",""
"","","","","","html-keyboard-response","94","445995","0.0-7.1-0.1-1.40","null","<span style='color:GreenYellow; font-size: 70px;'>正确! </span>","null","","","","","","","","","","","","","","","","","","","","","","","","","feedback_test","",""
"","","","","","psychophysics","95","447870","0.0-7.1-0.1-0.41","867","","arrowright","","","","","","","","","","","","","key","arrowright","16.66607142857122","960","536","arrowright","true","../../test_img/22.png","自我","prac_matching_task","自我","[""<img src=\""../../test_img/26.png\"" width=150 style=\""vertical-align:middle\"">---朋友"",""<img src=\""../../test_img/22.png\"" width=150 style=\""vertical-align:middle\"">---自我"",""<img src=\""../../test_img/15.png\"" width=150 style=\""vertical-align:middle\"">---生人""]","","",""
"","","","","","html-keyboard-response","96","448182","0.0-7.1-0.1-1.41","null","<span style='color:GreenYellow; font-size: 70px;'>正确! </span>","null","","","","","","","","","","","","","","","","","","","","","","","","","feedback_test","",""
"","","","","","psychophysics","97","450366","0.0-7.1-0.1-0.42","1180","","arrowleft","","","","","","","","","","","","","key","arrowleft","16.666153846154113","960","536","arrowleft","true","../../test_img/26.png","生人","prac_matching_task","朋友","[""<img src=\""../../test_img/26.png\"" width=150 style=\""vertical-align:middle\"">---朋友"",""<img src=\""../../test_img/22.png\"" width=150 style=\""vertical-align:middle\"">---自我"",""<img src=\""../../test_img/15.png\"" width=150 style=\""vertical-align:middle\"">---生人""]","","",""
"","","","","","html-keyboard-response","98","450674","0.0-7.1-0.1-1.42","null","<span style='color:GreenYellow; font-size: 70px;'>正确! </span>","null","","","","","","","","","","","","","","","","","","","","","","","","","feedback_test","",""
"","","","","","psychophysics","99","452717","0.0-7.1-0.1-0.43","1040","","arrowright","","","","","","","","","","","","","key","arrowright","16.666942148760427","960","536","arrowleft","false","../../test_img/22.png","生人","prac_matching_task","自我","[""<img src=\""../../test_img/26.png\"" width=150 style=\""vertical-align:middle\"">---朋友"",""<img src=\""../../test_img/22.png\"" width=150 style=\""vertical-align:middle\"">---自我"",""<img src=\""../../test_img/15.png\"" width=150 style=\""vertical-align:middle\"">---生人""]","","",""
"","","","","","html-keyboard-response","100","453019","0.0-7.1-0.1-1.43","null","<span style='color:red; font-size: 70px;'>错误! </span>","null","","","","","","","","","","","","","","","","","","","","","","","","","feedback_test","",""
"","","","","","psychophysics","101","454840","0.0-7.1-0.1-0.44","820","","arrowright","","","","","","","","","","","","","key","arrowright","16.66611111111113","960","536","arrowright","true","../../test_img/26.png","朋友","prac_matching_task","朋友","[""<img src=\""../../test_img/26.png\"" width=150 style=\""vertical-align:middle\"">---朋友"",""<img src=\""../../test_img/22.png\"" width=150 style=\""vertical-align:middle\"">---自我"",""<img src=\""../../test_img/15.png\"" width=150 style=\""vertical-align:middle\"">---生人""]","","",""
"","","","","","html-keyboard-response","102","455141","0.0-7.1-0.1-1.44","null","<span style='color:GreenYellow; font-size: 70px;'>正确! </span>","null","","","","","","","","","","","","","","","","","","","","","","","","","feedback_test","",""
"","","","","","psychophysics","103","456997","0.0-7.1-0.1-0.45","849","","arrowleft","","","","","","","","","","","","","key","arrowleft","16.667272727272408","960","536","arrowleft","true","../../test_img/15.png","自我","prac_matching_task","生人","[""<img src=\""../../test_img/26.png\"" width=150 style=\""vertical-align:middle\"">---朋友"",""<img src=\""../../test_img/22.png\"" width=150 style=\""vertical-align:middle\"">---自我"",""<img src=\""../../test_img/15.png\"" width=150 style=\""vertical-align:middle\"">---生人""]","","",""
"","","","","","html-keyboard-response","104","457313","0.0-7.1-0.1-1.45","null","<span style='color:GreenYellow; font-size: 70px;'>正确! </span>","null","","","","","","","","","","","","","","","","","","","","","","","","","feedback_test","",""
"","","","","","psychophysics","105","459224","0.0-7.1-0.1-0.46","904","","arrowleft","","","","","","","","","","","","","key","arrowleft","16.666666666666668","960","536","arrowright","false","../../test_img/22.png","自我","prac_matching_task","自我","[""<img src=\""../../test_img/26.png\"" width=150 style=\""vertical-align:middle\"">---朋友"",""<img src=\""../../test_img/22.png\"" width=150 style=\""vertical-align:middle\"">---自我"",""<img src=\""../../test_img/15.png\"" width=150 style=\""vertical-align:middle\"">---生人""]","","",""
"","","","","","html-keyboard-response","106","459525","0.0-7.1-0.1-1.46","null","<span style='color:red; font-size: 70px;'>错误! </span>","null","","","","","","","","","","","","","","","","","","","","","","","","","feedback_test","",""
"","","","","","psychophysics","107","461622","0.0-7.1-0.1-0.47","1086","","arrowleft","","","","","","","","","","","","","key","arrowleft","16.666399999999907","960","536","arrowleft","true","../../test_img/22.png","朋友","prac_matching_task","自我","[""<img src=\""../../test_img/26.png\"" width=150 style=\""vertical-align:middle\"">---朋友"",""<img src=\""../../test_img/22.png\"" width=150 style=\""vertical-align:middle\"">---自我"",""<img src=\""../../test_img/15.png\"" width=150 style=\""vertical-align:middle\"">---生人""]","","",""
"","","","","","html-keyboard-response","108","461924","0.0-7.1-0.1-1.47","null","<span style='color:GreenYellow; font-size: 70px;'>正确! </span>","null","","","","","","","","","","","","","","","","","","","","","","","","","feedback_test","",""
"","","","","","html-keyboard-response","109","469518","0.0-8.0","7592","<style>.context{color:white; font-size: 35px; line-height:40px}</style>                          <div><p class='context'>您正确回答了83% 的试次。</p ><p class='context'>您的平均反应时为895毫秒。</p ><p class='context'>恭喜您完成练习。按任意键进入知觉匹配任务正式实验。</p ><p style = 'color:lightgreen; font-size: 35px;' >正式实验与练习要求相同，请您尽可能又快又准地进行按键反应</p><p class='footer' style='font-size: 22px; line-height:40px;'>请将您右手的<span style='color: lightgreen;'>食指与无名指</span>放在电脑键盘的相应键位上进行按键。</p >"," ","","","","","","","","","","","","","","","","","","","","","","","","","","",""
"","","","","","psychophysics","110","471526","0.0-9.0-0.0-0.0-0.0-0.0","1006","","arrowleft","","","","","","","","","","","","","key","arrowleft","16.665833333333527","960","536","arrowleft","true","../../test_img/26.png","自我","matching_task","朋友","[""<img src=\""../../test_img/26.png\"" width=150 style=\""vertical-align:middle\"">---朋友"",""<img src=\""../../test_img/22.png\"" width=150 style=\""vertical-align:middle\"">---自我"",""<img src=\""../../test_img/15.png\"" width=150 style=\""vertical-align:middle\"">---生人""]","","",""
"","","","","","html-keyboard-response","111","472040","0.0-9.0-0.0-0.0-0.0-1.0","null","<span style='color:GreenYellow; font-size: 70px;'>正确! </span>","null","","","","","","","","","","","","","","","","","","","","","","","","","feedback_test","",""
"","","","","","psychophysics","112","474029","0.0-9.0-0.0-0.0-0.0-0.1","981","","arrowright","","","","","","","","","","","","","key","arrowright","16.666949152541978","960","536","arrowleft","false","../../test_img/15.png","朋友","matching_task","生人","[""<img src=\""../../test_img/26.png\"" width=150 style=\""vertical-align:middle\"">---朋友"",""<img src=\""../../test_img/22.png\"" width=150 style=\""vertical-align:middle\"">---自我"",""<img src=\""../../test_img/15.png\"" width=150 style=\""vertical-align:middle\"">---生人""]","","",""
"","","","","","html-keyboard-response","113","474530","0.0-9.0-0.0-0.0-0.0-1.1","null","<span style='color:red; font-size: 70px;'>错误! </span>","null","","","","","","","","","","","","","","","","","","","","","","","","","feedback_test","",""
"","","","","","psychophysics","114","476686","0.0-9.0-0.0-0.0-0.0-0.2","1150","","arrowright","","","","","","","","","","","","","key","arrowright","16.667187499999727","960","536","arrowright","true","../../test_img/26.png","朋友","matching_task","朋友","[""<img src=\""../../test_img/26.png\"" width=150 style=\""vertical-align:middle\"">---朋友"",""<img src=\""../../test_img/22.png\"" width=150 style=\""vertical-align:middle\"">---自我"",""<img src=\""../../test_img/15.png\"" width=150 style=\""vertical-align:middle\"">---生人""]","","",""
"","","","","","html-keyboard-response","115","477187","0.0-9.0-0.0-0.0-0.0-1.2","null","<span style='color:GreenYellow; font-size: 70px;'>正确! </span>","null","","","","","","","","","","","","","","","","","","","","","","","","","feedback_test","",""
"","","","","","psychophysics","116","479213","0.0-9.0-0.0-0.0-0.0-0.3","1011","","arrowleft","","","","","","","","","","","","","key","arrowleft","16.66833333333343","960","536","arrowleft","true","../../test_img/22.png","生人","matching_task","自我","[""<img src=\""../../test_img/26.png\"" width=150 style=\""vertical-align:middle\"">---朋友"",""<img src=\""../../test_img/22.png\"" width=150 style=\""vertical-align:middle\"">---自我"",""<img src=\""../../test_img/15.png\"" width=150 style=\""vertical-align:middle\"">---生人""]","","",""
"","","","","","html-keyboard-response","117","479726","0.0-9.0-0.0-0.0-0.0-1.3","null","<span style='color:GreenYellow; font-size: 70px;'>正确! </span>","null","","","","","","","","","","","","","","","","","","","","","","","","","feedback_test","",""
"","","","","","psychophysics","118","481959","0.0-9.0-0.0-0.0-0.0-0.4","1223","","arrowright","","","","","","","","","","","","","key","arrowright","16.66691729323317","960","536","arrowleft","false","../../test_img/26.png","生人","matching_task","朋友","[""<img src=\""../../test_img/26.png\"" width=150 style=\""vertical-align:middle\"">---朋友"",""<img src=\""../../test_img/22.png\"" width=150 style=\""vertical-align:middle\"">---自我"",""<img src=\""../../test_img/15.png\"" width=150 style=\""vertical-align:middle\"">---生人""]","","",""
"","","","","","html-keyboard-response","119","482467","0.0-9.0-0.0-0.0-0.0-1.4","null","<span style='color:red; font-size: 70px;'>错误! </span>","null","","","","","","","","","","","","","","","","","","","","","","","","","feedback_test","",""
"","","","","","psychophysics","120","484391","0.0-9.0-0.0-0.0-0.0-0.5","922","","arrowright","","","","","","","","","","","","","key","arrowright","16.66695652173923","960","536","arrowleft","false","../../test_img/22.png","朋友","matching_task","自我","[""<img src=\""../../test_img/26.png\"" width=150 style=\""vertical-align:middle\"">---朋友"",""<img src=\""../../test_img/22.png\"" width=150 style=\""vertical-align:middle\"">---自我"",""<img src=\""../../test_img/15.png\"" width=150 style=\""vertical-align:middle\"">---生人""]","","",""
"","","","","","html-keyboard-response","121","484896","0.0-9.0-0.0-0.0-0.0-1.5","null","<span style='color:red; font-size: 70px;'>错误! </span>","null","","","","","","","","","","","","","","","","","","","","","","","","","feedback_test","",""
"","","","","","psychophysics","122","486656","0.0-9.0-0.0-0.0-0.0-0.6","755","","arrowright","","","","","","","","","","","","","key","arrowright","16.666666666666668","960","536","arrowright","true","../../test_img/15.png","生人","matching_task","生人","[""<img src=\""../../test_img/26.png\"" width=150 style=\""vertical-align:middle\"">---朋友"",""<img src=\""../../test_img/22.png\"" width=150 style=\""vertical-align:middle\"">---自我"",""<img src=\""../../test_img/15.png\"" width=150 style=\""vertical-align:middle\"">---生人""]","","",""
"","","","","","html-keyboard-response","123","487163","0.0-9.0-0.0-0.0-0.0-1.6","null","<span style='color:GreenYellow; font-size: 70px;'>正确! </span>","null","","","","","","","","","","","","","","","","","","","","","","","","","feedback_test","",""
"","","","","","psychophysics","124","489007","0.0-9.0-0.0-0.0-0.0-0.7","839","","arrowright","","","","","","","","","","","","","key","arrowright","16.667272727272938","960","536","arrowright","true","../../test_img/22.png","自我","matching_task","自我","[""<img src=\""../../test_img/26.png\"" width=150 style=\""vertical-align:middle\"">---朋友"",""<img src=\""../../test_img/22.png\"" width=150 style=\""vertical-align:middle\"">---自我"",""<img src=\""../../test_img/15.png\"" width=150 style=\""vertical-align:middle\"">---生人""]","","",""
"","","","","","html-keyboard-response","125","489522","0.0-9.0-0.0-0.0-0.0-1.7","null","<span style='color:GreenYellow; font-size: 70px;'>正确! </span>","null","","","","","","","","","","","","","","","","","","","","","","","","","feedback_test","",""
"","","","","","psychophysics","126","491429","0.0-9.0-0.0-0.0-0.0-0.8","904","","arrowright","","","","","","","","","","","","","key","arrowright","16.66725663716783","960","536","arrowright","true","../../test_img/15.png","生人","matching_task","生人","[""<img src=\""../../test_img/26.png\"" width=150 style=\""vertical-align:middle\"">---朋友"",""<img src=\""../../test_img/22.png\"" width=150 style=\""vertical-align:middle\"">---自我"",""<img src=\""../../test_img/15.png\"" width=150 style=\""vertical-align:middle\"">---生人""]","","",""
"","","","","","html-keyboard-response","127","491934","0.0-9.0-0.0-0.0-0.0-1.8","null","<span style='color:GreenYellow; font-size: 70px;'>正确! </span>","null","","","","","","","","","","","","","","","","","","","","","","","","","feedback_test","",""
"","","","","","psychophysics","128","494128","0.0-9.0-0.0-0.0-0.0-0.9","1192","","arrowright","","","","","","","","","","","","","key","arrowright","16.66656488549579","960","536","arrowright","true","../../test_img/26.png","朋友","matching_task","朋友","[""<img src=\""../../test_img/26.png\"" width=150 style=\""vertical-align:middle\"">---朋友"",""<img src=\""../../test_img/22.png\"" width=150 style=\""vertical-align:middle\"">---自我"",""<img src=\""../../test_img/15.png\"" width=150 style=\""vertical-align:middle\"">---生人""]","","",""
"","","","","","html-keyboard-response","129","494633","0.0-9.0-0.0-0.0-0.0-1.9","null","<span style='color:GreenYellow; font-size: 70px;'>正确! </span>","null","","","","","","","","","","","","","","","","","","","","","","","","","feedback_test","",""
"","","","","","psychophysics","130","496359","0.0-9.0-0.0-0.0-0.0-0.10","723","","arrowleft","","","","","","","","","","","","","key","arrowleft","16.66699029126225","960","536","arrowleft","true","../../test_img/15.png","自我","matching_task","生人","[""<img src=\""../../test_img/26.png\"" width=150 style=\""vertical-align:middle\"">---朋友"",""<img src=\""../../test_img/22.png\"" width=150 style=\""vertical-align:middle\"">---自我"",""<img src=\""../../test_img/15.png\"" width=150 style=\""vertical-align:middle\"">---生人""]","","",""
"","","","","","html-keyboard-response","131","496869","0.0-9.0-0.0-0.0-0.0-1.10","null","<span style='color:GreenYellow; font-size: 70px;'>正确! </span>","null","","","","","","","","","","","","","","","","","","","","","","","","","feedback_test","",""
"","","","","","psychophysics","132","498655","0.0-9.0-0.0-0.0-0.0-0.11","785","","arrowright","","","","","","","","","","","","","key","arrowright","16.656603773584685","960","536","arrowright","true","../../test_img/22.png","自我","matching_task","自我","[""<img src=\""../../test_img/26.png\"" width=150 style=\""vertical-align:middle\"">---朋友"",""<img src=\""../../test_img/22.png\"" width=150 style=\""vertical-align:middle\"">---自我"",""<img src=\""../../test_img/15.png\"" width=150 style=\""vertical-align:middle\"">---生人""]","","",""
"","","","","","html-keyboard-response","133","499168","0.0-9.0-0.0-0.0-0.0-1.11","null","<span style='color:GreenYellow; font-size: 70px;'>正确! </span>","null","","","","","","","","","","","","","","","","","","","","","","","","","feedback_test","",""
"","","","","","psychophysics","134","501029","0.0-9.0-0.0-0.0-0.0-0.12","860","","arrowright","","","","","","","","","","","","","key","arrowright","16.665765765765975","960","536","arrowright","true","../../test_img/22.png","自我","matching_task","自我","[""<img src=\""../../test_img/26.png\"" width=150 style=\""vertical-align:middle\"">---朋友"",""<img src=\""../../test_img/22.png\"" width=150 style=\""vertical-align:middle\"">---自我"",""<img src=\""../../test_img/15.png\"" width=150 style=\""vertical-align:middle\"">---生人""]","","",""
"","","","","","html-keyboard-response","135","501536","0.0-9.0-0.0-0.0-0.0-1.12","null","<span style='color:GreenYellow; font-size: 70px;'>正确! </span>","null","","","","","","","","","","","","","","","","","","","","","","","","","feedback_test","",""
"","","","","","psychophysics","136","503416","0.0-9.0-0.0-0.0-0.0-0.13","878","","arrowleft","","","","","","","","","","","","","key","arrowleft","16.666666666666668","960","536","arrowleft","true","../../test_img/22.png","生人","matching_task","自我","[""<img src=\""../../test_img/26.png\"" width=150 style=\""vertical-align:middle\"">---朋友"",""<img src=\""../../test_img/22.png\"" width=150 style=\""vertical-align:middle\"">---自我"",""<img src=\""../../test_img/15.png\"" width=150 style=\""vertical-align:middle\"">---生人""]","","",""
"","","","","","html-keyboard-response","137","503919","0.0-9.0-0.0-0.0-0.0-1.13","null","<span style='color:GreenYellow; font-size: 70px;'>正确! </span>","null","","","","","","","","","","","","","","","","","","","","","","","","","feedback_test","",""
"","","","","","psychophysics","138","505855","0.0-9.0-0.0-0.0-0.0-0.14","934","","arrowleft","","","","","","","","","","","","","key","arrowleft","16.660869565217393","960","536","arrowleft","true","../../test_img/26.png","自我","matching_task","朋友","[""<img src=\""../../test_img/26.png\"" width=150 style=\""vertical-align:middle\"">---朋友"",""<img src=\""../../test_img/22.png\"" width=150 style=\""vertical-align:middle\"">---自我"",""<img src=\""../../test_img/15.png\"" width=150 style=\""vertical-align:middle\"">---生人""]","","",""
"","","","","","html-keyboard-response","139","506363","0.0-9.0-0.0-0.0-0.0-1.14","null","<span style='color:GreenYellow; font-size: 70px;'>正确! </span>","null","","","","","","","","","","","","","","","","","","","","","","","","","feedback_test","",""
"","","","","","psychophysics","140","508318","0.0-9.0-0.0-0.0-0.0-0.15","948","","arrowleft","","","","","","","","","","","","","key","arrowleft","16.667241379310546","960","536","arrowleft","true","../../test_img/22.png","朋友","matching_task","自我","[""<img src=\""../../test_img/26.png\"" width=150 style=\""vertical-align:middle\"">---朋友"",""<img src=\""../../test_img/22.png\"" width=150 style=\""vertical-align:middle\"">---自我"",""<img src=\""../../test_img/15.png\"" width=150 style=\""vertical-align:middle\"">---生人""]","","",""
"","","","","","html-keyboard-response","141","508833","0.0-9.0-0.0-0.0-0.0-1.15","null","<span style='color:GreenYellow; font-size: 70px;'>正确! </span>","null","","","","","","","","","","","","","","","","","","","","","","","","","feedback_test","",""
"","","","","","psychophysics","142","510541","0.0-9.0-0.0-0.0-0.0-0.16","705","","arrowright","","","","","","","","","","","","","key","arrowright","16.666666666666668","960","536","arrowright","true","../../test_img/15.png","生人","matching_task","生人","[""<img src=\""../../test_img/26.png\"" width=150 style=\""vertical-align:middle\"">---朋友"",""<img src=\""../../test_img/22.png\"" width=150 style=\""vertical-align:middle\"">---自我"",""<img src=\""../../test_img/15.png\"" width=150 style=\""vertical-align:middle\"">---生人""]","","",""
"","","","","","html-keyboard-response","143","511048","0.0-9.0-0.0-0.0-0.0-1.16","null","<span style='color:GreenYellow; font-size: 70px;'>正确! </span>","null","","","","","","","","","","","","","","","","","","","","","","","","","feedback_test","",""
"","","","","","psychophysics","144","512992","0.0-9.0-0.0-0.0-0.0-0.17","939","","arrowright","","","","","","","","","","","","","key","arrowright","16.666379310344727","960","536","arrowright","true","../../test_img/26.png","朋友","matching_task","朋友","[""<img src=\""../../test_img/26.png\"" width=150 style=\""vertical-align:middle\"">---朋友"",""<img src=\""../../test_img/22.png\"" width=150 style=\""vertical-align:middle\"">---自我"",""<img src=\""../../test_img/15.png\"" width=150 style=\""vertical-align:middle\"">---生人""]","","",""
"","","","","","html-keyboard-response","145","513506","0.0-9.0-0.0-0.0-0.0-1.17","null","<span style='color:GreenYellow; font-size: 70px;'>正确! </span>","null","","","","","","","","","","","","","","","","","","","","","","","","","feedback_test","",""
"","","","","","psychophysics","146","515391","0.0-9.0-0.0-0.0-0.0-0.18","883","","arrowleft","","","","","","","","","","","","","key","arrowleft","16.66696428571439","960","536","arrowleft","true","../../test_img/15.png","自我","matching_task","生人","[""<img src=\""../../test_img/26.png\"" width=150 style=\""vertical-align:middle\"">---朋友"",""<img src=\""../../test_img/22.png\"" width=150 style=\""vertical-align:middle\"">---自我"",""<img src=\""../../test_img/15.png\"" width=150 style=\""vertical-align:middle\"">---生人""]","","",""
"","","","","","html-keyboard-response","147","515893","0.0-9.0-0.0-0.0-0.0-1.18","null","<span style='color:GreenYellow; font-size: 70px;'>正确! </span>","null","","","","","","","","","","","","","","","","","","","","","","","","","feedback_test","",""
"","","","","","psychophysics","148","517734","0.0-9.0-0.0-0.0-0.0-0.19","831","","arrowright","","","","","","","","","","","","","key","arrowright","16.666972477063794","960","536","arrowright","true","../../test_img/22.png","自我","matching_task","自我","[""<img src=\""../../test_img/26.png\"" width=150 style=\""vertical-align:middle\"">---朋友"",""<img src=\""../../test_img/22.png\"" width=150 style=\""vertical-align:middle\"">---自我"",""<img src=\""../../test_img/15.png\"" width=150 style=\""vertical-align:middle\"">---生人""]","","",""
"","","","","","html-keyboard-response","149","518248","0.0-9.0-0.0-0.0-0.0-1.19","null","<span style='color:GreenYellow; font-size: 70px;'>正确! </span>","null","","","","","","","","","","","","","","","","","","","","","","","","","feedback_test","",""
"","","","","","psychophysics","150","519886","0.0-9.0-0.0-0.0-0.0-0.20","633","","arrowright","","","","","","","","","","","","","key","arrowright","16.663917525773435","960","536","arrowright","true","../../test_img/15.png","生人","matching_task","生人","[""<img src=\""../../test_img/26.png\"" width=150 style=\""vertical-align:middle\"">---朋友"",""<img src=\""../../test_img/22.png\"" width=150 style=\""vertical-align:middle\"">---自我"",""<img src=\""../../test_img/15.png\"" width=150 style=\""vertical-align:middle\"">---生人""]","","",""
"","","","","","html-keyboard-response","151","520392","0.0-9.0-0.0-0.0-0.0-1.20","null","<span style='color:GreenYellow; font-size: 70px;'>正确! </span>","null","","","","","","","","","","","","","","","","","","","","","","","","","feedback_test","",""
"","","","","","psychophysics","152","522110","0.0-9.0-0.0-0.0-0.0-0.21","707","","arrowright","","","","","","","","","","","","","key","arrowright","16.667647058823302","960","536","arrowright","true","../../test_img/26.png","朋友","matching_task","朋友","[""<img src=\""../../test_img/26.png\"" width=150 style=\""vertical-align:middle\"">---朋友"",""<img src=\""../../test_img/22.png\"" width=150 style=\""vertical-align:middle\"">---自我"",""<img src=\""../../test_img/15.png\"" width=150 style=\""vertical-align:middle\"">---生人""]","","",""
"","","","","","html-keyboard-response","153","522611","0.0-9.0-0.0-0.0-0.0-1.21","null","<span style='color:GreenYellow; font-size: 70px;'>正确! </span>","null","","","","","","","","","","","","","","","","","","","","","","","","","feedback_test","",""
"","","","","","psychophysics","154","524207","0.0-9.0-0.0-0.0-0.0-0.22","589","","arrowright","","","","","","","","","","","","","key","arrowright","16.667368421052878","960","536","arrowleft","false","../../test_img/15.png","朋友","matching_task","生人","[""<img src=\""../../test_img/26.png\"" width=150 style=\""vertical-align:middle\"">---朋友"",""<img src=\""../../test_img/22.png\"" width=150 style=\""vertical-align:middle\"">---自我"",""<img src=\""../../test_img/15.png\"" width=150 style=\""vertical-align:middle\"">---生人""]","","",""
"","","","","","html-keyboard-response","155","524709","0.0-9.0-0.0-0.0-0.0-1.22","null","<span style='color:red; font-size: 70px;'>错误! </span>","null","","","","","","","","","","","","","","","","","","","","","","","","","feedback_test","",""
"","","","","","psychophysics","156","526597","0.0-9.0-0.0-0.0-0.0-0.23","884","","arrowright","","","","","","","","","","","","","key","arrowright","16.66785714285756","960","536","arrowleft","false","../../test_img/26.png","生人","matching_task","朋友","[""<img src=\""../../test_img/26.png\"" width=150 style=\""vertical-align:middle\"">---朋友"",""<img src=\""../../test_img/22.png\"" width=150 style=\""vertical-align:middle\"">---自我"",""<img src=\""../../test_img/15.png\"" width=150 style=\""vertical-align:middle\"">---生人""]","","",""
"","","","","","html-keyboard-response","157","527103","0.0-9.0-0.0-0.0-0.0-1.23","null","<span style='color:red; font-size: 70px;'>错误! </span>","null","","","","","","","","","","","","","","","","","","","","","","","","","feedback_test","",""
"","","","","","psychophysics","158","528830","0.0-9.0-0.0-0.0-0.0-0.24","723","","arrowright","","","","","","","","","","","","","key","arrowright","16.665686274510033","960","536","arrowright","true","../../test_img/15.png","生人","matching_task","生人","[""<img src=\""../../test_img/26.png\"" width=150 style=\""vertical-align:middle\"">---朋友"",""<img src=\""../../test_img/22.png\"" width=150 style=\""vertical-align:middle\"">---自我"",""<img src=\""../../test_img/15.png\"" width=150 style=\""vertical-align:middle\"">---生人""]","","",""
"","","","","","html-keyboard-response","159","529345","0.0-9.0-0.0-0.0-0.0-1.24","null","<span style='color:GreenYellow; font-size: 70px;'>正确! </span>","null","","","","","","","","","","","","","","","","","","","","","","","","","feedback_test","",""
"","","","","","psychophysics","160","531359","0.0-9.0-0.0-0.0-0.0-0.25","1007","","arrowright","","","","","","","","","","","","","key","arrowright","16.666666666666668","960","536","arrowright","true","../../test_img/22.png","自我","matching_task","自我","[""<img src=\""../../test_img/26.png\"" width=150 style=\""vertical-align:middle\"">---朋友"",""<img src=\""../../test_img/22.png\"" width=150 style=\""vertical-align:middle\"">---自我"",""<img src=\""../../test_img/15.png\"" width=150 style=\""vertical-align:middle\"">---生人""]","","",""
"","","","","","html-keyboard-response","161","531860","0.0-9.0-0.0-0.0-0.0-1.25","null","<span style='color:GreenYellow; font-size: 70px;'>正确! </span>","null","","","","","","","","","","","","","","","","","","","","","","","","","feedback_test","",""
"","","","","","psychophysics","162","533782","0.0-9.0-0.0-0.0-0.0-0.26","915","","arrowright","","","","","","","","","","","","","key","arrowright","16.66754385964892","960","536","arrowright","true","../../test_img/15.png","生人","matching_task","生人","[""<img src=\""../../test_img/26.png\"" width=150 style=\""vertical-align:middle\"">---朋友"",""<img src=\""../../test_img/22.png\"" width=150 style=\""vertical-align:middle\"">---自我"",""<img src=\""../../test_img/15.png\"" width=150 style=\""vertical-align:middle\"">---生人""]","","",""
"","","","","","html-keyboard-response","163","534283","0.0-9.0-0.0-0.0-0.0-1.26","null","<span style='color:GreenYellow; font-size: 70px;'>正确! </span>","null","","","","","","","","","","","","","","","","","","","","","","","","","feedback_test","",""
"","","","","","psychophysics","164","536302","0.0-9.0-0.0-0.0-0.0-0.27","1018","","arrowright","","","","","","","","","","","","","key","arrowright","16.666666666666668","960","536","arrowright","true","../../test_img/22.png","自我","matching_task","自我","[""<img src=\""../../test_img/26.png\"" width=150 style=\""vertical-align:middle\"">---朋友"",""<img src=\""../../test_img/22.png\"" width=150 style=\""vertical-align:middle\"">---自我"",""<img src=\""../../test_img/15.png\"" width=150 style=\""vertical-align:middle\"">---生人""]","","",""
"","","","","","html-keyboard-response","165","536809","0.0-9.0-0.0-0.0-0.0-1.27","null","<span style='color:GreenYellow; font-size: 70px;'>正确! </span>","null","","","","","","","","","","","","","","","","","","","","","","","","","feedback_test","",""
"","","","","","psychophysics","166","538654","0.0-9.0-0.0-0.0-0.0-0.28","835","","arrowright","","","","","","","","","","","","","key","arrowright","16.66636363636406","960","536","arrowright","true","../../test_img/26.png","朋友","matching_task","朋友","[""<img src=\""../../test_img/26.png\"" width=150 style=\""vertical-align:middle\"">---朋友"",""<img src=\""../../test_img/22.png\"" width=150 style=\""vertical-align:middle\"">---自我"",""<img src=\""../../test_img/15.png\"" width=150 style=\""vertical-align:middle\"">---生人""]","","",""
"","","","","","html-keyboard-response","167","539170","0.0-9.0-0.0-0.0-0.0-1.28","null","<span style='color:GreenYellow; font-size: 70px;'>正确! </span>","null","","","","","","","","","","","","","","","","","","","","","","","","","feedback_test","",""
"","","","","","psychophysics","168","541288","0.0-9.0-0.0-0.0-0.0-0.29","1101","","arrowleft","","","","","","","","","","","","","key","arrowleft","16.666666666666668","960","536","arrowleft","true","../../test_img/22.png","生人","matching_task","自我","[""<img src=\""../../test_img/26.png\"" width=150 style=\""vertical-align:middle\"">---朋友"",""<img src=\""../../test_img/22.png\"" width=150 style=\""vertical-align:middle\"">---自我"",""<img src=\""../../test_img/15.png\"" width=150 style=\""vertical-align:middle\"">---生人""]","","",""
"","","","","","html-keyboard-response","169","541789","0.0-9.0-0.0-0.0-0.0-1.29","null","<span style='color:GreenYellow; font-size: 70px;'>正确! </span>","null","","","","","","","","","","","","","","","","","","","","","","","","","feedback_test","",""
"","","","","","psychophysics","170","543616","0.0-9.0-0.0-0.0-0.0-0.30","814","","arrowright","","","","","","","","","","","","","key","arrowright","16.664814814815244","960","536","arrowleft","false","../../test_img/15.png","朋友","matching_task","生人","[""<img src=\""../../test_img/26.png\"" width=150 style=\""vertical-align:middle\"">---朋友"",""<img src=\""../../test_img/22.png\"" width=150 style=\""vertical-align:middle\"">---自我"",""<img src=\""../../test_img/15.png\"" width=150 style=\""vertical-align:middle\"">---生人""]","","",""
"","","","","","html-keyboard-response","171","544128","0.0-9.0-0.0-0.0-0.0-1.30","null","<span style='color:red; font-size: 70px;'>错误! </span>","null","","","","","","","","","","","","","","","","","","","","","","","","","feedback_test","",""
"","","","","","psychophysics","172","546207","0.0-9.0-0.0-0.0-0.0-0.31","1071","","arrowleft","","","","","","","","","","","","","key","arrowleft","16.66693548387153","960","536","arrowleft","true","../../test_img/26.png","自我","matching_task","朋友","[""<img src=\""../../test_img/26.png\"" width=150 style=\""vertical-align:middle\"">---朋友"",""<img src=\""../../test_img/22.png\"" width=150 style=\""vertical-align:middle\"">---自我"",""<img src=\""../../test_img/15.png\"" width=150 style=\""vertical-align:middle\"">---生人""]","","",""
"","","","","","html-keyboard-response","173","546719","0.0-9.0-0.0-0.0-0.0-1.31","null","<span style='color:GreenYellow; font-size: 70px;'>正确! </span>","null","","","","","","","","","","","","","","","","","","","","","","","","","feedback_test","",""
"","","","","","psychophysics","174","548566","0.0-9.0-0.0-0.0-0.0-0.32","846","","arrowright","","","","","","","","","","","","","key","arrowright","16.66238532110049","960","536","arrowright","true","../../test_img/26.png","朋友","matching_task","朋友","[""<img src=\""../../test_img/26.png\"" width=150 style=\""vertical-align:middle\"">---朋友"",""<img src=\""../../test_img/22.png\"" width=150 style=\""vertical-align:middle\"">---自我"",""<img src=\""../../test_img/15.png\"" width=150 style=\""vertical-align:middle\"">---生人""]","","",""
"","","","","","html-keyboard-response","175","549080","0.0-9.0-0.0-0.0-0.0-1.32","null","<span style='color:GreenYellow; font-size: 70px;'>正确! </span>","null","","","","","","","","","","","","","","","","","","","","","","","","","feedback_test","",""
"","","","","","psychophysics","176","550840","0.0-9.0-0.0-0.0-0.0-0.33","754","","arrowleft","","","","","","","","","","","","","key","arrowleft","16.666666666666668","960","536","arrowleft","true","../../test_img/22.png","朋友","matching_task","自我","[""<img src=\""../../test_img/26.png\"" width=150 style=\""vertical-align:middle\"">---朋友"",""<img src=\""../../test_img/22.png\"" width=150 style=\""vertical-align:middle\"">---自我"",""<img src=\""../../test_img/15.png\"" width=150 style=\""vertical-align:middle\"">---生人""]","","",""
"","","","","","html-keyboard-response","177","551346","0.0-9.0-0.0-0.0-0.0-1.33","null","<span style='color:GreenYellow; font-size: 70px;'>正确! </span>","null","","","","","","","","","","","","","","","","","","","","","","","","","feedback_test","",""
"","","","","","psychophysics","178","553438","0.0-9.0-0.0-0.0-0.0-0.34","1085","","arrowleft","","","","","","","","","","","","","key","arrowleft","16.66639999999944","960","536","arrowleft","true","../../test_img/15.png","自我","matching_task","生人","[""<img src=\""../../test_img/26.png\"" width=150 style=\""vertical-align:middle\"">---朋友"",""<img src=\""../../test_img/22.png\"" width=150 style=\""vertical-align:middle\"">---自我"",""<img src=\""../../test_img/15.png\"" width=150 style=\""vertical-align:middle\"">---生人""]","","",""
"","","","","","html-keyboard-response","179","553954","0.0-9.0-0.0-0.0-0.0-1.34","null","<span style='color:GreenYellow; font-size: 70px;'>正确! </span>","null","","","","","","","","","","","","","","","","","","","","","","","","","feedback_test","",""
"","","","","","psychophysics","180","555886","0.0-9.0-0.0-0.0-0.0-0.35","917","","arrowleft","","","","","","","","","","","","","key","arrowleft","16.66754385964892","960","536","arrowleft","true","../../test_img/26.png","生人","matching_task","朋友","[""<img src=\""../../test_img/26.png\"" width=150 style=\""vertical-align:middle\"">---朋友"",""<img src=\""../../test_img/22.png\"" width=150 style=\""vertical-align:middle\"">---自我"",""<img src=\""../../test_img/15.png\"" width=150 style=\""vertical-align:middle\"">---生人""]","","",""
"","","","","","html-keyboard-response","181","556391","0.0-9.0-0.0-0.0-0.0-1.35","null","<span style='color:GreenYellow; font-size: 70px;'>正确! </span>","null","","","","","","","","","","","","","","","","","","","","","","","","","feedback_test","",""
"","","","","","psychophysics","182","558494","0.0-9.0-0.0-0.0-0.0-0.36","1095","","arrowleft","","","","","","","","","","","","","key","arrowleft","16.66639999999944","960","536","arrowleft","true","../../test_img/22.png","生人","matching_task","自我","[""<img src=\""../../test_img/26.png\"" width=150 style=\""vertical-align:middle\"">---朋友"",""<img src=\""../../test_img/22.png\"" width=150 style=\""vertical-align:middle\"">---自我"",""<img src=\""../../test_img/15.png\"" width=150 style=\""vertical-align:middle\"">---生人""]","","",""
"","","","","","html-keyboard-response","183","559007","0.0-9.0-0.0-0.0-0.0-1.36","null","<span style='color:GreenYellow; font-size: 70px;'>正确! </span>","null","","","","","","","","","","","","","","","","","","","","","","","","","feedback_test","",""
"","","","","","psychophysics","184","561229","0.0-9.0-0.0-0.0-0.0-0.37","1220","","arrowright","","","","","","","","","","","","","key","arrowright","16.666666666666668","960","536","arrowright","true","../../test_img/22.png","自我","matching_task","自我","[""<img src=\""../../test_img/26.png\"" width=150 style=\""vertical-align:middle\"">---朋友"",""<img src=\""../../test_img/22.png\"" width=150 style=\""vertical-align:middle\"">---自我"",""<img src=\""../../test_img/15.png\"" width=150 style=\""vertical-align:middle\"">---生人""]","","",""
"","","","","","html-keyboard-response","185","561730","0.0-9.0-0.0-0.0-0.0-1.37","null","<span style='color:GreenYellow; font-size: 70px;'>正确! </span>","null","","","","","","","","","","","","","","","","","","","","","","","","","feedback_test","",""
"","","","","","psychophysics","186","563685","0.0-9.0-0.0-0.0-0.0-0.38","951","","arrowright","","","","","","","","","","","","","key","arrowright","16.666379310345228","960","536","arrowright","true","../../test_img/26.png","朋友","matching_task","朋友","[""<img src=\""../../test_img/26.png\"" width=150 style=\""vertical-align:middle\"">---朋友"",""<img src=\""../../test_img/22.png\"" width=150 style=\""vertical-align:middle\"">---自我"",""<img src=\""../../test_img/15.png\"" width=150 style=\""vertical-align:middle\"">---生人""]","","",""
"","","","","","html-keyboard-response","187","564189","0.0-9.0-0.0-0.0-0.0-1.38","null","<span style='color:GreenYellow; font-size: 70px;'>正确! </span>","null","","","","","","","","","","","","","","","","","","","","","","","","","feedback_test","",""
"","","","","","psychophysics","188","566054","0.0-9.0-0.0-0.0-0.0-0.39","861","","arrowleft","","","","","","","","","","","","","key","arrowleft","16.666666666666668","960","536","arrowleft","true","../../test_img/15.png","自我","matching_task","生人","[""<img src=\""../../test_img/26.png\"" width=150 style=\""vertical-align:middle\"">---朋友"",""<img src=\""../../test_img/22.png\"" width=150 style=\""vertical-align:middle\"">---自我"",""<img src=\""../../test_img/15.png\"" width=150 style=\""vertical-align:middle\"">---生人""]","","",""
"","","","","","html-keyboard-response","189","566563","0.0-9.0-0.0-0.0-0.0-1.39","null","<span style='color:GreenYellow; font-size: 70px;'>正确! </span>","null","","","","","","","","","","","","","","","","","","","","","","","","","feedback_test","",""
"","","","","","psychophysics","190","568623","0.0-9.0-0.0-0.0-0.0-0.40","1054","","arrowleft","","","","","","","","","","","","","key","arrowleft","16.665853658536776","960","536","arrowleft","true","../../test_img/15.png","朋友","matching_task","生人","[""<img src=\""../../test_img/26.png\"" width=150 style=\""vertical-align:middle\"">---朋友"",""<img src=\""../../test_img/22.png\"" width=150 style=\""vertical-align:middle\"">---自我"",""<img src=\""../../test_img/15.png\"" width=150 style=\""vertical-align:middle\"">---生人""]","","",""
"","","","","","html-keyboard-response","191","569125","0.0-9.0-0.0-0.0-0.0-1.40","null","<span style='color:GreenYellow; font-size: 70px;'>正确! </span>","null","","","","","","","","","","","","","","","","","","","","","","","","","feedback_test","",""
"","","","","","psychophysics","192","570998","0.0-9.0-0.0-0.0-0.0-0.41","862","","arrowright","","","","","","","","","","","","","key","arrowright","16.666666666666668","960","536","arrowright","true","../../test_img/15.png","生人","matching_task","生人","[""<img src=\""../../test_img/26.png\"" width=150 style=\""vertical-align:middle\"">---朋友"",""<img src=\""../../test_img/22.png\"" width=150 style=\""vertical-align:middle\"">---自我"",""<img src=\""../../test_img/15.png\"" width=150 style=\""vertical-align:middle\"">---生人""]","","",""
"","","","","","html-keyboard-response","193","571499","0.0-9.0-0.0-0.0-0.0-1.41","null","<span style='color:GreenYellow; font-size: 70px;'>正确! </span>","null","","","","","","","","","","","","","","","","","","","","","","","","","feedback_test","",""
"","","","","","psychophysics","194","573526","0.0-9.0-0.0-0.0-0.0-0.42","1023","","arrowright","","","","","","","","","","","","","key","arrowright","16.666942148759947","960","536","arrowright","true","../../test_img/15.png","生人","matching_task","生人","[""<img src=\""../../test_img/26.png\"" width=150 style=\""vertical-align:middle\"">---朋友"",""<img src=\""../../test_img/22.png\"" width=150 style=\""vertical-align:middle\"">---自我"",""<img src=\""../../test_img/15.png\"" width=150 style=\""vertical-align:middle\"">---生人""]","","",""
"","","","","","html-keyboard-response","195","574029","0.0-9.0-0.0-0.0-0.0-1.42","null","<span style='color:GreenYellow; font-size: 70px;'>正确! </span>","null","","","","","","","","","","","","","","","","","","","","","","","","","feedback_test","",""
"","","","","","psychophysics","196","575886","0.0-9.0-0.0-0.0-0.0-0.43","850","","arrowright","","","","","","","","","","","","","key","arrowright","16.667272727271882","960","536","arrowright","true","../../test_img/26.png","朋友","matching_task","朋友","[""<img src=\""../../test_img/26.png\"" width=150 style=\""vertical-align:middle\"">---朋友"",""<img src=\""../../test_img/22.png\"" width=150 style=\""vertical-align:middle\"">---自我"",""<img src=\""../../test_img/15.png\"" width=150 style=\""vertical-align:middle\"">---生人""]","","",""
"","","","","","html-keyboard-response","197","576396","0.0-9.0-0.0-0.0-0.0-1.43","null","<span style='color:GreenYellow; font-size: 70px;'>正确! </span>","null","","","","","","","","","","","","","","","","","","","","","","","","","feedback_test","",""
"","","","","","psychophysics","198","578208","0.0-9.0-0.0-0.0-0.0-0.44","807","","arrowright","","","","","","","","","","","","","key","arrowright","16.666666666666668","960","536","arrowright","true","../../test_img/22.png","自我","matching_task","自我","[""<img src=\""../../test_img/26.png\"" width=150 style=\""vertical-align:middle\"">---朋友"",""<img src=\""../../test_img/22.png\"" width=150 style=\""vertical-align:middle\"">---自我"",""<img src=\""../../test_img/15.png\"" width=150 style=\""vertical-align:middle\"">---生人""]","","",""
"","","","","","html-keyboard-response","199","578720","0.0-9.0-0.0-0.0-0.0-1.44","null","<span style='color:GreenYellow; font-size: 70px;'>正确! </span>","null","","","","","","","","","","","","","","","","","","","","","","","","","feedback_test","",""
"","","","","","psychophysics","200","580582","0.0-9.0-0.0-0.0-0.0-0.45","846","","arrowleft","","","","","","","","","","","","","key","arrowleft","16.667272727272938","960","536","arrowleft","true","../../test_img/26.png","生人","matching_task","朋友","[""<img src=\""../../test_img/26.png\"" width=150 style=\""vertical-align:middle\"">---朋友"",""<img src=\""../../test_img/22.png\"" width=150 style=\""vertical-align:middle\"">---自我"",""<img src=\""../../test_img/15.png\"" width=150 style=\""vertical-align:middle\"">---生人""]","","",""
"","","","","","html-keyboard-response","201","581087","0.0-9.0-0.0-0.0-0.0-1.45","null","<span style='color:GreenYellow; font-size: 70px;'>正确! </span>","null","","","","","","","","","","","","","","","","","","","","","","","","","feedback_test","",""
"","","","","","psychophysics","202","582949","0.0-9.0-0.0-0.0-0.0-0.46","862","","arrowleft","","","","","","","","","","","","","key","arrowleft","16.666363636363002","960","536","arrowleft","true","../../test_img/22.png","朋友","matching_task","自我","[""<img src=\""../../test_img/26.png\"" width=150 style=\""vertical-align:middle\"">---朋友"",""<img src=\""../../test_img/22.png\"" width=150 style=\""vertical-align:middle\"">---自我"",""<img src=\""../../test_img/15.png\"" width=150 style=\""vertical-align:middle\"">---生人""]","","",""
"","","","","","html-keyboard-response","203","583451","0.0-9.0-0.0-0.0-0.0-1.46","null","<span style='color:GreenYellow; font-size: 70px;'>正确! </span>","null","","","","","","","","","","","","","","","","","","","","","","","","","feedback_test","",""
"","","","","","psychophysics","204","585624","0.0-9.0-0.0-0.0-0.0-0.47","1171","","arrowleft","","","","","","","","","","","","","key","arrowleft","16.65891472868217","960","536","arrowleft","true","../../test_img/26.png","自我","matching_task","朋友","[""<img src=\""../../test_img/26.png\"" width=150 style=\""vertical-align:middle\"">---朋友"",""<img src=\""../../test_img/22.png\"" width=150 style=\""vertical-align:middle\"">---自我"",""<img src=\""../../test_img/15.png\"" width=150 style=\""vertical-align:middle\"">---生人""]","","",""
"","","","","","html-keyboard-response","205","586133","0.0-9.0-0.0-0.0-0.0-1.47","null","<span style='color:GreenYellow; font-size: 70px;'>正确! </span>","null","","","","","","","","","","","","","","","","","","","","","","","","","feedback_test","",""
"","","","","","psychophysics","206","587894","0.0-9.0-0.0-0.0-0.0-0.48","758","","arrowright","","","","","","","","","","","","","key","arrowright","16.666666666666668","960","536","arrowright","true","../../test_img/22.png","自我","matching_task","自我","[""<img src=\""../../test_img/26.png\"" width=150 style=\""vertical-align:middle\"">---朋友"",""<img src=\""../../test_img/22.png\"" width=150 style=\""vertical-align:middle\"">---自我"",""<img src=\""../../test_img/15.png\"" width=150 style=\""vertical-align:middle\"">---生人""]","","",""
"","","","","","html-keyboard-response","207","588397","0.0-9.0-0.0-0.0-0.0-1.48","null","<span style='color:GreenYellow; font-size: 70px;'>正确! </span>","null","","","","","","","","","","","","","","","","","","","","","","","","","feedback_test","",""
"","","","","","psychophysics","208","590045","0.0-9.0-0.0-0.0-0.0-0.49","643","","arrowright","","","","","","","","","","","","","key","arrowright","16.66632653061153","960","536","arrowright","true","../../test_img/15.png","生人","matching_task","生人","[""<img src=\""../../test_img/26.png\"" width=150 style=\""vertical-align:middle\"">---朋友"",""<img src=\""../../test_img/22.png\"" width=150 style=\""vertical-align:middle\"">---自我"",""<img src=\""../../test_img/15.png\"" width=150 style=\""vertical-align:middle\"">---生人""]","","",""
"","","","","","html-keyboard-response","209","590547","0.0-9.0-0.0-0.0-0.0-1.49","null","<span style='color:GreenYellow; font-size: 70px;'>正确! </span>","null","","","","","","","","","","","","","","","","","","","","","","","","","feedback_test","",""
"","","","","","psychophysics","210","592398","0.0-9.0-0.0-0.0-0.0-0.50","845","","arrowleft","","","","","","","","","","","","","key","arrowleft","16.666363636363002","960","536","arrowleft","true","../../test_img/26.png","生人","matching_task","朋友","[""<img src=\""../../test_img/26.png\"" width=150 style=\""vertical-align:middle\"">---朋友"",""<img src=\""../../test_img/22.png\"" width=150 style=\""vertical-align:middle\"">---自我"",""<img src=\""../../test_img/15.png\"" width=150 style=\""vertical-align:middle\"">---生人""]","","",""
"","","","","","html-keyboard-response","211","592900","0.0-9.0-0.0-0.0-0.0-1.50","null","<span style='color:GreenYellow; font-size: 70px;'>正确! </span>","null","","","","","","","","","","","","","","","","","","","","","","","","","feedback_test","",""
"","","","","","psychophysics","212","594974","0.0-9.0-0.0-0.0-0.0-0.51","1072","","arrowleft","","","","","","","","","","","","","key","arrowleft","16.666935483870592","960","536","arrowleft","true","../../test_img/26.png","自我","matching_task","朋友","[""<img src=\""../../test_img/26.png\"" width=150 style=\""vertical-align:middle\"">---朋友"",""<img src=\""../../test_img/22.png\"" width=150 style=\""vertical-align:middle\"">---自我"",""<img src=\""../../test_img/15.png\"" width=150 style=\""vertical-align:middle\"">---生人""]","","",""
"","","","","","html-keyboard-response","213","595486","0.0-9.0-0.0-0.0-0.0-1.51","null","<span style='color:GreenYellow; font-size: 70px;'>正确! </span>","null","","","","","","","","","","","","","","","","","","","","","","","","","feedback_test","",""
"","","","","","psychophysics","214","597510","0.0-9.0-0.0-0.0-0.0-0.52","1023","","arrowleft","","","","","","","","","","","","","key","arrowleft","16.666666666666668","960","536","arrowleft","true","../../test_img/22.png","生人","matching_task","自我","[""<img src=\""../../test_img/26.png\"" width=150 style=\""vertical-align:middle\"">---朋友"",""<img src=\""../../test_img/22.png\"" width=150 style=\""vertical-align:middle\"">---自我"",""<img src=\""../../test_img/15.png\"" width=150 style=\""vertical-align:middle\"">---生人""]","","",""
"","","","","","html-keyboard-response","215","598011","0.0-9.0-0.0-0.0-0.0-1.52","null","<span style='color:GreenYellow; font-size: 70px;'>正确! </span>","null","","","","","","","","","","","","","","","","","","","","","","","","","feedback_test","",""
"","","","","","psychophysics","216","600255","0.0-9.0-0.0-0.0-0.0-0.53","1235","","arrowleft","","","","","","","","","","","","","key","arrowleft","16.667164179104653","960","536","arrowright","false","../../test_img/26.png","朋友","matching_task","朋友","[""<img src=\""../../test_img/26.png\"" width=150 style=\""vertical-align:middle\"">---朋友"",""<img src=\""../../test_img/22.png\"" width=150 style=\""vertical-align:middle\"">---自我"",""<img src=\""../../test_img/15.png\"" width=150 style=\""vertical-align:middle\"">---生人""]","","",""
"","","","","","html-keyboard-response","217","600761","0.0-9.0-0.0-0.0-0.0-1.53","null","<span style='color:red; font-size: 70px;'>错误! </span>","null","","","","","","","","","","","","","","","","","","","","","","","","","feedback_test","",""
"","","","","","psychophysics","218","602597","0.0-9.0-0.0-0.0-0.0-0.54","828","","arrowleft","","","","","","","","","","","","","key","arrowleft","16.66697247706486","960","536","arrowleft","true","../../test_img/22.png","朋友","matching_task","自我","[""<img src=\""../../test_img/26.png\"" width=150 style=\""vertical-align:middle\"">---朋友"",""<img src=\""../../test_img/22.png\"" width=150 style=\""vertical-align:middle\"">---自我"",""<img src=\""../../test_img/15.png\"" width=150 style=\""vertical-align:middle\"">---生人""]","","",""
"","","","","","html-keyboard-response","219","603102","0.0-9.0-0.0-0.0-0.0-1.54","null","<span style='color:GreenYellow; font-size: 70px;'>正确! </span>","null","","","","","","","","","","","","","","","","","","","","","","","","","feedback_test","",""
"","","","","","psychophysics","220","605087","0.0-9.0-0.0-0.0-0.0-0.55","984","","arrowright","","","","","","","","","","","","","key","arrowright","16.656779661016948","960","536","arrowright","true","../../test_img/26.png","朋友","matching_task","朋友","[""<img src=\""../../test_img/26.png\"" width=150 style=\""vertical-align:middle\"">---朋友"",""<img src=\""../../test_img/22.png\"" width=150 style=\""vertical-align:middle\"">---自我"",""<img src=\""../../test_img/15.png\"" width=150 style=\""vertical-align:middle\"">---生人""]","","",""
"","","","","","html-keyboard-response","221","605589","0.0-9.0-0.0-0.0-0.0-1.55","null","<span style='color:GreenYellow; font-size: 70px;'>正确! </span>","null","","","","","","","","","","","","","","","","","","","","","","","","","feedback_test","",""
"","","","","","psychophysics","222","607518","0.0-9.0-0.0-0.0-0.0-0.56","915","","arrowleft","","","","","","","","","","","","","key","arrowleft","16.666666666666668","960","536","arrowleft","true","../../test_img/15.png","自我","matching_task","生人","[""<img src=\""../../test_img/26.png\"" width=150 style=\""vertical-align:middle\"">---朋友"",""<img src=\""../../test_img/22.png\"" width=150 style=\""vertical-align:middle\"">---自我"",""<img src=\""../../test_img/15.png\"" width=150 style=\""vertical-align:middle\"">---生人""]","","",""
"","","","","","html-keyboard-response","223","608023","0.0-9.0-0.0-0.0-0.0-1.56","null","<span style='color:GreenYellow; font-size: 70px;'>正确! </span>","null","","","","","","","","","","","","","","","","","","","","","","","","","feedback_test","",""
"","","","","","psychophysics","224","609949","0.0-9.0-0.0-0.0-0.0-0.57","913","","arrowright","","","","","","","","","","","","","key","arrowright","16.66754385964994","960","536","arrowright","true","../../test_img/22.png","自我","matching_task","自我","[""<img src=\""../../test_img/26.png\"" width=150 style=\""vertical-align:middle\"">---朋友"",""<img src=\""../../test_img/22.png\"" width=150 style=\""vertical-align:middle\"">---自我"",""<img src=\""../../test_img/15.png\"" width=150 style=\""vertical-align:middle\"">---生人""]","","",""
"","","","","","html-keyboard-response","225","610454","0.0-9.0-0.0-0.0-0.0-1.57","null","<span style='color:GreenYellow; font-size: 70px;'>正确! </span>","null","","","","","","","","","","","","","","","","","","","","","","","","","feedback_test","",""
"","","","","","psychophysics","226","612438","0.0-9.0-0.0-0.0-0.0-0.58","969","","arrowleft","","","","","","","","","","","","","key","arrowleft","16.666949152541978","960","536","arrowleft","true","../../test_img/15.png","朋友","matching_task","生人","[""<img src=\""../../test_img/26.png\"" width=150 style=\""vertical-align:middle\"">---朋友"",""<img src=\""../../test_img/22.png\"" width=150 style=\""vertical-align:middle\"">---自我"",""<img src=\""../../test_img/15.png\"" width=150 style=\""vertical-align:middle\"">---生人""]","","",""
"","","","","","html-keyboard-response","227","612953","0.0-9.0-0.0-0.0-0.0-1.58","null","<span style='color:GreenYellow; font-size: 70px;'>正确! </span>","null","","","","","","","","","","","","","","","","","","","","","","","","","feedback_test","",""
"","","","","","psychophysics","228","614848","0.0-9.0-0.0-0.0-0.0-0.59","892","","arrowright","","","","","","","","","","","","","key","arrowright","16.66696428571387","960","536","arrowright","true","../../test_img/15.png","生人","matching_task","生人","[""<img src=\""../../test_img/26.png\"" width=150 style=\""vertical-align:middle\"">---朋友"",""<img src=\""../../test_img/22.png\"" width=150 style=\""vertical-align:middle\"">---自我"",""<img src=\""../../test_img/15.png\"" width=150 style=\""vertical-align:middle\"">---生人""]","","",""
"","","","","","html-keyboard-response","229","615351","0.0-9.0-0.0-0.0-0.0-1.59","null","<span style='color:GreenYellow; font-size: 70px;'>正确! </span>","null","","","","","","","","","","","","","","","","","","","","","","","","","feedback_test","",""
"","","","","","psychophysics","230","617110","0.0-9.0-0.0-0.0-0.0-0.60","758","","arrowright","","","","","","","","","","","","","key","arrowright","16.665714285714508","960","536","arrowright","true","../../test_img/22.png","自我","matching_task","自我","[""<img src=\""../../test_img/26.png\"" width=150 style=\""vertical-align:middle\"">---朋友"",""<img src=\""../../test_img/22.png\"" width=150 style=\""vertical-align:middle\"">---自我"",""<img src=\""../../test_img/15.png\"" width=150 style=\""vertical-align:middle\"">---生人""]","","",""
"","","","","","html-keyboard-response","231","617618","0.0-9.0-0.0-0.0-0.0-1.60","null","<span style='color:GreenYellow; font-size: 70px;'>正确! </span>","null","","","","","","","","","","","","","","","","","","","","","","","","","feedback_test","",""
"","","","","","psychophysics","232","619469","0.0-9.0-0.0-0.0-0.0-0.61","850","","arrowright","","","","","","","","","","","","","key","arrowright","16.66636363636406","960","536","arrowright","true","../../test_img/26.png","朋友","matching_task","朋友","[""<img src=\""../../test_img/26.png\"" width=150 style=\""vertical-align:middle\"">---朋友"",""<img src=\""../../test_img/22.png\"" width=150 style=\""vertical-align:middle\"">---自我"",""<img src=\""../../test_img/15.png\"" width=150 style=\""vertical-align:middle\"">---生人""]","","",""
"","","","","","html-keyboard-response","233","619974","0.0-9.0-0.0-0.0-0.0-1.61","null","<span style='color:GreenYellow; font-size: 70px;'>正确! </span>","null","","","","","","","","","","","","","","","","","","","","","","","","","feedback_test","",""
"","","","","","psychophysics","234","621678","0.0-9.0-0.0-0.0-0.0-0.62","692","","arrowleft","","","","","","","","","","","","","key","arrowleft","16.66633663366383","960","536","arrowleft","true","../../test_img/15.png","朋友","matching_task","生人","[""<img src=\""../../test_img/26.png\"" width=150 style=\""vertical-align:middle\"">---朋友"",""<img src=\""../../test_img/22.png\"" width=150 style=\""vertical-align:middle\"">---自我"",""<img src=\""../../test_img/15.png\"" width=150 style=\""vertical-align:middle\"">---生人""]","","",""
"","","","","","html-keyboard-response","235","622192","0.0-9.0-0.0-0.0-0.0-1.62","null","<span style='color:GreenYellow; font-size: 70px;'>正确! </span>","null","","","","","","","","","","","","","","","","","","","","","","","","","feedback_test","",""
"","","","","","psychophysics","236","624085","0.0-9.0-0.0-0.0-0.0-0.63","883","","arrowleft","","","","","","","","","","","","","key","arrowleft","16.66607142857122","960","536","arrowleft","true","../../test_img/26.png","生人","matching_task","朋友","[""<img src=\""../../test_img/26.png\"" width=150 style=\""vertical-align:middle\"">---朋友"",""<img src=\""../../test_img/22.png\"" width=150 style=\""vertical-align:middle\"">---自我"",""<img src=\""../../test_img/15.png\"" width=150 style=\""vertical-align:middle\"">---生人""]","","",""
"","","","","","html-keyboard-response","237","624591","0.0-9.0-0.0-0.0-0.0-1.63","null","<span style='color:GreenYellow; font-size: 70px;'>正确! </span>","null","","","","","","","","","","","","","","","","","","","","","","","","","feedback_test","",""
"","","","","","psychophysics","238","626493","0.0-9.0-0.0-0.0-0.0-0.64","901","","arrowleft","","","","","","","","","","","","","key","arrowleft","16.667256637168347","960","536","arrowleft","true","../../test_img/22.png","生人","matching_task","自我","[""<img src=\""../../test_img/26.png\"" width=150 style=\""vertical-align:middle\"">---朋友"",""<img src=\""../../test_img/22.png\"" width=150 style=\""vertical-align:middle\"">---自我"",""<img src=\""../../test_img/15.png\"" width=150 style=\""vertical-align:middle\"">---生人""]","","",""
"","","","","","html-keyboard-response","239","627009","0.0-9.0-0.0-0.0-0.0-1.64","null","<span style='color:GreenYellow; font-size: 70px;'>正确! </span>","null","","","","","","","","","","","","","","","","","","","","","","","","","feedback_test","",""
"","","","","","psychophysics","240","628816","0.0-9.0-0.0-0.0-0.0-0.65","796","","arrowright","","","","","","","","","","","","","key","arrowright","16.66822429906542","960","536","arrowright","true","../../test_img/22.png","自我","matching_task","自我","[""<img src=\""../../test_img/26.png\"" width=150 style=\""vertical-align:middle\"">---朋友"",""<img src=\""../../test_img/22.png\"" width=150 style=\""vertical-align:middle\"">---自我"",""<img src=\""../../test_img/15.png\"" width=150 style=\""vertical-align:middle\"">---生人""]","","",""
"","","","","","html-keyboard-response","241","629319","0.0-9.0-0.0-0.0-0.0-1.65","null","<span style='color:GreenYellow; font-size: 70px;'>正确! </span>","null","","","","","","","","","","","","","","","","","","","","","","","","","feedback_test","",""
"","","","","","psychophysics","242","631045","0.0-9.0-0.0-0.0-0.0-0.66","725","","arrowright","","","","","","","","","","","","","key","arrowright","16.66568627450889","960","536","arrowright","true","../../test_img/15.png","生人","matching_task","生人","[""<img src=\""../../test_img/26.png\"" width=150 style=\""vertical-align:middle\"">---朋友"",""<img src=\""../../test_img/22.png\"" width=150 style=\""vertical-align:middle\"">---自我"",""<img src=\""../../test_img/15.png\"" width=150 style=\""vertical-align:middle\"">---生人""]","","",""
"","","","","","html-keyboard-response","243","631553","0.0-9.0-0.0-0.0-0.0-1.66","null","<span style='color:GreenYellow; font-size: 70px;'>正确! </span>","null","","","","","","","","","","","","","","","","","","","","","","","","","feedback_test","",""
"","","","","","psychophysics","244","633591","0.0-9.0-0.0-0.0-0.0-0.67","1023","","arrowleft","","","","","","","","","","","","","key","arrowleft","16.666942148760906","960","536","arrowleft","true","../../test_img/15.png","自我","matching_task","生人","[""<img src=\""../../test_img/26.png\"" width=150 style=\""vertical-align:middle\"">---朋友"",""<img src=\""../../test_img/22.png\"" width=150 style=\""vertical-align:middle\"">---自我"",""<img src=\""../../test_img/15.png\"" width=150 style=\""vertical-align:middle\"">---生人""]","","",""
"","","","","","html-keyboard-response","245","634093","0.0-9.0-0.0-0.0-0.0-1.67","null","<span style='color:GreenYellow; font-size: 70px;'>正确! </span>","null","","","","","","","","","","","","","","","","","","","","","","","","","feedback_test","",""
"","","","","","psychophysics","246","635782","0.0-9.0-0.0-0.0-0.0-0.68","679","","arrowright","","","","","","","","","","","","","key","arrowright","16.666999999999533","960","536","arrowright","true","../../test_img/15.png","生人","matching_task","生人","[""<img src=\""../../test_img/26.png\"" width=150 style=\""vertical-align:middle\"">---朋友"",""<img src=\""../../test_img/22.png\"" width=150 style=\""vertical-align:middle\"">---自我"",""<img src=\""../../test_img/15.png\"" width=150 style=\""vertical-align:middle\"">---生人""]","","",""
"","","","","","html-keyboard-response","247","636294","0.0-9.0-0.0-0.0-0.0-1.68","null","<span style='color:GreenYellow; font-size: 70px;'>正确! </span>","null","","","","","","","","","","","","","","","","","","","","","","","","","feedback_test","",""
"","","","","","psychophysics","248","637998","0.0-9.0-0.0-0.0-0.0-0.69","695","","arrowleft","","","","","","","","","","","","","key","arrowleft","16.668316831683168","960","536","arrowleft","true","../../test_img/22.png","朋友","matching_task","自我","[""<img src=\""../../test_img/26.png\"" width=150 style=\""vertical-align:middle\"">---朋友"",""<img src=\""../../test_img/22.png\"" width=150 style=\""vertical-align:middle\"">---自我"",""<img src=\""../../test_img/15.png\"" width=150 style=\""vertical-align:middle\"">---生人""]","","",""
"","","","","","html-keyboard-response","249","638508","0.0-9.0-0.0-0.0-0.0-1.69","null","<span style='color:GreenYellow; font-size: 70px;'>正确! </span>","null","","","","","","","","","","","","","","","","","","","","","","","","","feedback_test","",""
"","","","","","psychophysics","250","640293","0.0-9.0-0.0-0.0-0.0-0.70","774","","arrowleft","","","","","","","","","","","","","key","arrowleft","16.667924528302326","960","536","arrowleft","true","../../test_img/26.png","自我","matching_task","朋友","[""<img src=\""../../test_img/26.png\"" width=150 style=\""vertical-align:middle\"">---朋友"",""<img src=\""../../test_img/22.png\"" width=150 style=\""vertical-align:middle\"">---自我"",""<img src=\""../../test_img/15.png\"" width=150 style=\""vertical-align:middle\"">---生人""]","","",""
"","","","","","html-keyboard-response","251","640801","0.0-9.0-0.0-0.0-0.0-1.70","null","<span style='color:GreenYellow; font-size: 70px;'>正确! </span>","null","","","","","","","","","","","","","","","","","","","","","","","","","feedback_test","",""
"","","","","","psychophysics","252","642575","0.0-9.0-0.0-0.0-0.0-0.71","772","","arrowright","","","","","","","","","","","","","key","arrowright","16.66616981132022","960","536","arrowright","true","../../test_img/26.png","朋友","matching_task","朋友","[""<img src=\""../../test_img/26.png\"" width=150 style=\""vertical-align:middle\"">---朋友"",""<img src=\""../../test_img/22.png\"" width=150 style=\""vertical-align:middle\"">---自我"",""<img src=\""../../test_img/15.png\"" width=150 style=\""vertical-align:middle\"">---生人""]","","",""
"","","","","","html-keyboard-response","253","643083","0.0-9.0-0.0-0.0-0.0-1.71","null","<span style='color:GreenYellow; font-size: 70px;'>正确! </span>","null","","","","","","","","","","","","","","","","","","","","","","","","","feedback_test","",""
"","","","","","html-keyboard-response","254","647302","0.0-9.0-0.0-0.0-1.0","4217","<style>.context{color:white; font-size: 35px; line-height:40px}</style>                          <div><p class='context'>您正确回答了90% 的试次。</p><p class='context'>您的平均反应时为891毫秒。</p><p class='context'>请按任意键进入休息</p></div>"," ","","","","","","","","","","","","","","","","","","","","","","","","","","",""
"","","","","","html-button-response","255","663542","0.0-9.0-0.0-0.0-2.0","16239","
                    <p>知觉匹配任务中，您还剩余4组实验</p>
                    <p>现在是休息时间，当您结束休息后，您可以点击 结束休息 按钮 继续</p>
                    <p>建议休息时间还剩余<span id=""iii"">60</span>秒</p>","0","","","","","","","","","","","","","","","","","","","","","","","","","","",""
"","","","","","psychophysics","256","665409","0.0-9.0-0.0-0.0-0.1-0.72","862","","arrowright","","","","","","","","","","","","","key","arrowright","16.666666666666668","960","536","arrowright","true","../../test_img/22.png","自我","matching_task","自我","[""<img src=\""../../test_img/26.png\"" width=150 style=\""vertical-align:middle\"">---朋友"",""<img src=\""../../test_img/22.png\"" width=150 style=\""vertical-align:middle\"">---自我"",""<img src=\""../../test_img/15.png\"" width=150 style=\""vertical-align:middle\"">---生人""]","","",""
"","","","","","html-keyboard-response","257","665922","0.0-9.0-0.0-0.0-0.1-1.72","null","<span style='color:GreenYellow; font-size: 70px;'>正确! </span>","null","","","","","","","","","","","","","","","","","","","","","","","","","feedback_test","",""
