"success","timeout","failed_images","failed_audio","failed_video","trial_type","trial_index","time_elapsed","internal_node_id","rt","stimulus","response","value","item_width_mm","item_height_mm","item_width_px","px2mm","view_dist_mm","item_width_deg","px2deg","scale_factor","win_width_deg","win_height_deg","view_history","response_type","key_press","avg_frame_time","center_x","center_y","correct_response","correct","Image","word","condition","shape","association","screen_id","LeftLable","RightLable"
"true","false","[]","[]","[]","preload","0","7342","0.0-0.0","","","","","","","","","","","","","","","","","","","","","","","","","","","","","",""
"","","","","","html-keyboard-response","1","38005","0.0-1.0","30663","
     <p>您好，欢迎参加本次实验。</p>
     <p>为充分保障您的权利，请确保您已经知晓并同意《参与实验同意书》以及《数据公开知情同意书》。</p>
     <p>如果您未见过上述内容，请咨询实验员。</p>
     <p>如果您选择继续实验，则表示您已经清楚两份知情同意书的内容并同意。</p>
     <p> <div style = ""color: green""><按任意键至下页></div> </p>
     ","meta","","","","","","","","","","","","","","","","","","","","","","","","","","",""
"","","","","","html-keyboard-response","2","136085","0.0-2.0","98079","
     <p>本实验首先需要您填写一些基本个人信息。</p>
     <p> <div style = ""color: green""><按任意键至下页></div></p>
     "," ","","","","","","","","","","","","","","","","","","","","","","","","","","",""
"","","","","","call-function","3","136086","0.0-3.0-0.0","","","","","","","","","","","","","","","","","","","","","","","","","","","","","",""
"","","","","","survey-html-form","4","140126","0.0-3.0-1.0","4035","","{""Q0"":""07""}","","","","","","","","","","","","","","","","","","","","","","","","","","",""
"","","","","","html-button-response","5","141232","0.0-3.0-2.0","1104","<p style = 'color : white'>您的性别</p>","0","","","","","","","","","","","","","","","","","","","","","","","","","","",""
"","","","","","survey-html-form","6","144421","0.0-3.0-3.0","3188","","{""Q0"":""2005""}","","","","","","","","","","","","","","","","","","","","","","","","","","",""
"","","","","","survey-html-form","7","150142","0.0-3.0-4.0","5720","","{""Q0"":""5""}","","","","","","","","","","","","","","","","","","","","","","","","","","",""
"","","","","","virtual-chinrest","8","238157","0.0-4.0","88014","","","","85.6","53.98","410.1169083643765","4.794324421724402","596.92","8.20233816728753","50","1.0387282048403423","33.98","16","","","","","","","","","","","","","","","",""
"true","","","","","fullscreen","9","268216","0.0-5.0","","","","","","","","","","","","","","","","","","","","","","","","","","","","","",""
"","","","","","instructions","10","415224","0.0-6.0","147008","","","","","","","","","","","","","","[{""page_index"":0,""viewing_time"":26686},{""page_index"":1,""viewing_time"":29338},{""page_index"":2,""viewing_time"":40734},{""page_index"":1,""viewing_time"":36150},{""page_index"":2,""viewing_time"":921},{""page_index"":3,""viewing_time"":6048},{""page_index"":4,""viewing_time"":7131}]","","","","","","","","","","","","","","",""
"","","","","","psychophysics","11","417164","0.0-7.0-0.0-0.0","939","","arrowright","","","","","","","","","","","","","key","arrowright","6.714634146341585","853.3333333333334","476","arrowright","true","../../test_img/25.png","朋友","prac_matching_task","朋友","[""<img src=\""../../test_img/19.png\"" width=150 style=\""vertical-align:middle\"">---生人"",""<img src=\""../../test_img/25.png\"" width=150 style=\""vertical-align:middle\"">---朋友"",""<img src=\""../../test_img/12.png\"" width=150 style=\""vertical-align:middle\"">---自我""]","","",""
"","","","","","html-keyboard-response","12","417479","0.0-7.0-0.0-1.0","null","<span style='color:GreenYellow; font-size: 70px;'>正确! </span>","null","","","","","","","","","","","","","","","","","","","","","","","","","feedback_test","",""
"","","","","","psychophysics","13","419344","0.0-7.0-0.0-0.1","864","","arrowright","","","","","","","","","","","","","key","arrowright","6.054575163398731","853.3333333333334","476","arrowleft","false","../../test_img/19.png","自我","prac_matching_task","生人","[""<img src=\""../../test_img/19.png\"" width=150 style=\""vertical-align:middle\"">---生人"",""<img src=\""../../test_img/25.png\"" width=150 style=\""vertical-align:middle\"">---朋友"",""<img src=\""../../test_img/12.png\"" width=150 style=\""vertical-align:middle\"">---自我""]","","",""
"","","","","","html-keyboard-response","14","419654","0.0-7.0-0.0-1.1","null","<span style='color:red; font-size: 70px;'>错误! </span>","null","","","","","","","","","","","","","","","","","","","","","","","","","feedback_test","",""
"","","","","","psychophysics","15","422019","0.0-7.0-0.0-0.2","1363","","arrowleft","","","","","","","","","","","","","key","arrowleft","6.060154241645154","853.3333333333334","476","arrowleft","true","../../test_img/25.png","自我","prac_matching_task","朋友","[""<img src=\""../../test_img/19.png\"" width=150 style=\""vertical-align:middle\"">---生人"",""<img src=\""../../test_img/25.png\"" width=150 style=\""vertical-align:middle\"">---朋友"",""<img src=\""../../test_img/12.png\"" width=150 style=\""vertical-align:middle\"">---自我""]","","",""
"","","","","","html-keyboard-response","16","422332","0.0-7.0-0.0-1.2","null","<span style='color:GreenYellow; font-size: 70px;'>正确! </span>","null","","","","","","","","","","","","","","","","","","","","","","","","","feedback_test","",""
"","","","","","psychophysics","17","423975","0.0-7.0-0.0-0.3","641","","arrowright","","","","","","","","","","","","","key","arrowright","6.059999999999827","853.3333333333334","476","arrowright","true","../../test_img/12.png","自我","prac_matching_task","自我","[""<img src=\""../../test_img/19.png\"" width=150 style=\""vertical-align:middle\"">---生人"",""<img src=\""../../test_img/25.png\"" width=150 style=\""vertical-align:middle\"">---朋友"",""<img src=\""../../test_img/12.png\"" width=150 style=\""vertical-align:middle\"">---自我""]","","",""
"","","","","","html-keyboard-response","18","424280","0.0-7.0-0.0-1.3","null","<span style='color:GreenYellow; font-size: 70px;'>正确! </span>","null","","","","","","","","","","","","","","","","","","","","","","","","","feedback_test","",""
"","","","","","psychophysics","19","426409","0.0-7.0-0.0-0.4","1123","","arrowright","","","","","","","","","","","","","key","arrowright","6.060571428571462","853.3333333333334","476","arrowleft","false","../../test_img/25.png","生人","prac_matching_task","朋友","[""<img src=\""../../test_img/19.png\"" width=150 style=\""vertical-align:middle\"">---生人"",""<img src=\""../../test_img/25.png\"" width=150 style=\""vertical-align:middle\"">---朋友"",""<img src=\""../../test_img/12.png\"" width=150 style=\""vertical-align:middle\"">---自我""]","","",""
"","","","","","html-keyboard-response","20","426716","0.0-7.0-0.0-1.4","null","<span style='color:red; font-size: 70px;'>错误! </span>","null","","","","","","","","","","","","","","","","","","","","","","","","","feedback_test","",""
"","","","","","psychophysics","21","428775","0.0-7.0-0.0-0.5","1059","","arrowright","","","","","","","","","","","","","key","arrowright","6.060650887573964","853.3333333333334","476","arrowright","true","../../test_img/19.png","生人","prac_matching_task","生人","[""<img src=\""../../test_img/19.png\"" width=150 style=\""vertical-align:middle\"">---生人"",""<img src=\""../../test_img/25.png\"" width=150 style=\""vertical-align:middle\"">---朋友"",""<img src=\""../../test_img/12.png\"" width=150 style=\""vertical-align:middle\"">---自我""]","","",""
"","","","","","html-keyboard-response","22","429088","0.0-7.0-0.0-1.5","null","<span style='color:GreenYellow; font-size: 70px;'>正确! </span>","null","","","","","","","","","","","","","","","","","","","","","","","","","feedback_test","",""
"","","","","","psychophysics","23","431370","0.0-7.0-0.0-0.6","1279","","arrowright","","","","","","","","","","","","","key","arrowright","6.060266666666605","853.3333333333334","476","arrowright","true","../../test_img/25.png","朋友","prac_matching_task","朋友","[""<img src=\""../../test_img/19.png\"" width=150 style=\""vertical-align:middle\"">---生人"",""<img src=\""../../test_img/25.png\"" width=150 style=\""vertical-align:middle\"">---朋友"",""<img src=\""../../test_img/12.png\"" width=150 style=\""vertical-align:middle\"">---自我""]","","",""
"","","","","","html-keyboard-response","24","431679","0.0-7.0-0.0-1.6","null","<span style='color:GreenYellow; font-size: 70px;'>正确! </span>","null","","","","","","","","","","","","","","","","","","","","","","","","","feedback_test","",""
"","","","","","psychophysics","25","433754","0.0-7.0-0.0-0.7","1074","","arrowleft","","","","","","","","","","","","","key","arrowleft","6.0917404129792825","853.3333333333334","476","arrowleft","true","../../test_img/19.png","朋友","prac_matching_task","生人","[""<img src=\""../../test_img/19.png\"" width=150 style=\""vertical-align:middle\"">---生人"",""<img src=\""../../test_img/25.png\"" width=150 style=\""vertical-align:middle\"">---朋友"",""<img src=\""../../test_img/12.png\"" width=150 style=\""vertical-align:middle\"">---自我""]","","",""
"","","","","","html-keyboard-response","26","434056","0.0-7.0-0.0-1.7","null","<span style='color:GreenYellow; font-size: 70px;'>正确! </span>","null","","","","","","","","","","","","","","","","","","","","","","","","","feedback_test","",""
"","","","","","psychophysics","27","435682","0.0-7.0-0.0-0.8","621","","arrowright","","","","","","","","","","","","","key","arrowright","6.0602996254682955","853.3333333333334","476","arrowleft","false","../../test_img/12.png","朋友","prac_matching_task","自我","[""<img src=\""../../test_img/19.png\"" width=150 style=\""vertical-align:middle\"">---生人"",""<img src=\""../../test_img/25.png\"" width=150 style=\""vertical-align:middle\"">---朋友"",""<img src=\""../../test_img/12.png\"" width=150 style=\""vertical-align:middle\"">---自我""]","","",""
"","","","","","html-keyboard-response","28","435985","0.0-7.0-0.0-1.8","null","<span style='color:red; font-size: 70px;'>错误! </span>","null","","","","","","","","","","","","","","","","","","","","","","","","","feedback_test","",""
"","","","","","psychophysics","29","438178","0.0-7.0-0.0-0.9","1190","","arrowright","","","","","","","","","","","","","key","arrowright","6.060387811634317","853.3333333333334","476","arrowright","true","../../test_img/12.png","自我","prac_matching_task","自我","[""<img src=\""../../test_img/19.png\"" width=150 style=\""vertical-align:middle\"">---生人"",""<img src=\""../../test_img/25.png\"" width=150 style=\""vertical-align:middle\"">---朋友"",""<img src=\""../../test_img/12.png\"" width=150 style=\""vertical-align:middle\"">---自我""]","","",""
"","","","","","html-keyboard-response","30","438489","0.0-7.0-0.0-1.9","null","<span style='color:GreenYellow; font-size: 70px;'>正确! </span>","null","","","","","","","","","","","","","","","","","","","","","","","","","feedback_test","",""
"","","","","","psychophysics","31","440429","0.0-7.0-0.0-0.10","938","","arrowleft","","","","","","","","","","","","","key","arrowleft","6.060188087774331","853.3333333333334","476","arrowleft","true","../../test_img/12.png","生人","prac_matching_task","自我","[""<img src=\""../../test_img/19.png\"" width=150 style=\""vertical-align:middle\"">---生人"",""<img src=\""../../test_img/25.png\"" width=150 style=\""vertical-align:middle\"">---朋友"",""<img src=\""../../test_img/12.png\"" width=150 style=\""vertical-align:middle\"">---自我""]","","",""
"","","","","","html-keyboard-response","32","440736","0.0-7.0-0.0-1.10","null","<span style='color:GreenYellow; font-size: 70px;'>正确! </span>","null","","","","","","","","","","","","","","","","","","","","","","","","","feedback_test","",""
"","","","","","psychophysics","33","442434","0.0-7.0-0.0-0.11","694","","arrowright","","","","","","","","","","","","","key","arrowright","6.060215053763399","853.3333333333334","476","arrowright","true","../../test_img/19.png","生人","prac_matching_task","生人","[""<img src=\""../../test_img/19.png\"" width=150 style=\""vertical-align:middle\"">---生人"",""<img src=\""../../test_img/25.png\"" width=150 style=\""vertical-align:middle\"">---朋友"",""<img src=\""../../test_img/12.png\"" width=150 style=\""vertical-align:middle\"">---自我""]","","",""
"","","","","","html-keyboard-response","34","442744","0.0-7.0-0.0-1.11","null","<span style='color:GreenYellow; font-size: 70px;'>正确! </span>","null","","","","","","","","","","","","","","","","","","","","","","","","","feedback_test","",""
"","","","","","psychophysics","35","444448","0.0-7.0-0.0-0.12","703","","arrowleft","","","","","","","","","","","","","key","arrowleft","6.059999999999959","853.3333333333334","476","arrowleft","true","../../test_img/12.png","生人","prac_matching_task","自我","[""<img src=\""../../test_img/19.png\"" width=150 style=\""vertical-align:middle\"">---生人"",""<img src=\""../../test_img/25.png\"" width=150 style=\""vertical-align:middle\"">---朋友"",""<img src=\""../../test_img/12.png\"" width=150 style=\""vertical-align:middle\"">---自我""]","","",""
"","","","","","html-keyboard-response","36","444764","0.0-7.0-0.0-1.12","null","<span style='color:GreenYellow; font-size: 70px;'>正确! </span>","null","","","","","","","","","","","","","","","","","","","","","","","","","feedback_test","",""
"","","","","","psychophysics","37","446886","0.0-7.0-0.0-0.13","1119","","arrowleft","","","","","","","","","","","","","key","arrowleft","6.095100864553314","853.3333333333334","476","arrowright","false","../../test_img/12.png","自我","prac_matching_task","自我","[""<img src=\""../../test_img/19.png\"" width=150 style=\""vertical-align:middle\"">---生人"",""<img src=\""../../test_img/25.png\"" width=150 style=\""vertical-align:middle\"">---朋友"",""<img src=\""../../test_img/12.png\"" width=150 style=\""vertical-align:middle\"">---自我""]","","",""
"","","","","","html-keyboard-response","38","447194","0.0-7.0-0.0-1.13","null","<span style='color:red; font-size: 70px;'>错误! </span>","null","","","","","","","","","","","","","","","","","","","","","","","","","feedback_test","",""
"","","","","","psychophysics","39","449561","0.0-7.0-0.0-0.14","1366","","arrowleft","","","","","","","","","","","","","key","arrowleft","6.0601542416453045","853.3333333333334","476","arrowleft","true","../../test_img/19.png","自我","prac_matching_task","生人","[""<img src=\""../../test_img/19.png\"" width=150 style=\""vertical-align:middle\"">---生人"",""<img src=\""../../test_img/25.png\"" width=150 style=\""vertical-align:middle\"">---朋友"",""<img src=\""../../test_img/12.png\"" width=150 style=\""vertical-align:middle\"">---自我""]","","",""
"","","","","","html-keyboard-response","40","449877","0.0-7.0-0.0-1.14","null","<span style='color:GreenYellow; font-size: 70px;'>正确! </span>","null","","","","","","","","","","","","","","","","","","","","","","","","","feedback_test","",""
"","","","","","psychophysics","41","451756","0.0-7.0-0.0-0.15","877","","arrowright","","","","","","","","","","","","","key","arrowright","6.055812297734766","853.3333333333334","476","arrowright","true","../../test_img/19.png","生人","prac_matching_task","生人","[""<img src=\""../../test_img/19.png\"" width=150 style=\""vertical-align:middle\"">---生人"",""<img src=\""../../test_img/25.png\"" width=150 style=\""vertical-align:middle\"">---朋友"",""<img src=\""../../test_img/12.png\"" width=150 style=\""vertical-align:middle\"">---自我""]","","",""
"","","","","","html-keyboard-response","42","452068","0.0-7.0-0.0-1.15","null","<span style='color:GreenYellow; font-size: 70px;'>正确! </span>","null","","","","","","","","","","","","","","","","","","","","","","","","","feedback_test","",""
"","","","","","psychophysics","43","453784","0.0-7.0-0.0-0.16","715","","arrowleft","","","","","","","","","","","","","key","arrowleft","6.060283687943262","853.3333333333334","476","arrowleft","true","../../test_img/19.png","朋友","prac_matching_task","生人","[""<img src=\""../../test_img/19.png\"" width=150 style=\""vertical-align:middle\"">---生人"",""<img src=\""../../test_img/25.png\"" width=150 style=\""vertical-align:middle\"">---朋友"",""<img src=\""../../test_img/12.png\"" width=150 style=\""vertical-align:middle\"">---自我""]","","",""
"","","","","","html-keyboard-response","44","454096","0.0-7.0-0.0-1.16","null","<span style='color:GreenYellow; font-size: 70px;'>正确! </span>","null","","","","","","","","","","","","","","","","","","","","","","","","","feedback_test","",""
"","","","","","psychophysics","45","456345","0.0-7.0-0.0-0.17","1248","","arrowright","","","","","","","","","","","","","key","arrowright","6.057452574525619","853.3333333333334","476","arrowright","true","../../test_img/19.png","生人","prac_matching_task","生人","[""<img src=\""../../test_img/19.png\"" width=150 style=\""vertical-align:middle\"">---生人"",""<img src=\""../../test_img/25.png\"" width=150 style=\""vertical-align:middle\"">---朋友"",""<img src=\""../../test_img/12.png\"" width=150 style=\""vertical-align:middle\"">---自我""]","","",""
"","","","","","html-keyboard-response","46","456660","0.0-7.0-0.0-1.17","null","<span style='color:GreenYellow; font-size: 70px;'>正确! </span>","null","","","","","","","","","","","","","","","","","","","","","","","","","feedback_test","",""
"","","","","","psychophysics","47","458563","0.0-7.0-0.0-0.18","902","","arrowleft","","","","","","","","","","","","","key","arrowleft","6.0797427652732745","853.3333333333334","476","arrowleft","true","../../test_img/25.png","生人","prac_matching_task","朋友","[""<img src=\""../../test_img/19.png\"" width=150 style=\""vertical-align:middle\"">---生人"",""<img src=\""../../test_img/25.png\"" width=150 style=\""vertical-align:middle\"">---朋友"",""<img src=\""../../test_img/12.png\"" width=150 style=\""vertical-align:middle\"">---自我""]","","",""
"","","","","","html-keyboard-response","48","458866","0.0-7.0-0.0-1.18","null","<span style='color:GreenYellow; font-size: 70px;'>正确! </span>","null","","","","","","","","","","","","","","","","","","","","","","","","","feedback_test","",""
"","","","","","psychophysics","49","460856","0.0-7.0-0.0-0.19","989","","arrowright","","","","","","","","","","","","","key","arrowright","6.094153846153774","853.3333333333334","476","arrowright","true","../../test_img/25.png","朋友","prac_matching_task","朋友","[""<img src=\""../../test_img/19.png\"" width=150 style=\""vertical-align:middle\"">---生人"",""<img src=\""../../test_img/25.png\"" width=150 style=\""vertical-align:middle\"">---朋友"",""<img src=\""../../test_img/12.png\"" width=150 style=\""vertical-align:middle\"">---自我""]","","",""
"","","","","","html-keyboard-response","50","461160","0.0-7.0-0.0-1.19","null","<span style='color:GreenYellow; font-size: 70px;'>正确! </span>","null","","","","","","","","","","","","","","","","","","","","","","","","","feedback_test","",""
"","","","","","psychophysics","51","462894","0.0-7.0-0.0-0.20","731","","arrowleft","","","","","","","","","","","","","key","arrowleft","6.059999999999918","853.3333333333334","476","arrowleft","true","../../test_img/12.png","朋友","prac_matching_task","自我","[""<img src=\""../../test_img/19.png\"" width=150 style=\""vertical-align:middle\"">---生人"",""<img src=\""../../test_img/25.png\"" width=150 style=\""vertical-align:middle\"">---朋友"",""<img src=\""../../test_img/12.png\"" width=150 style=\""vertical-align:middle\"">---自我""]","","",""
"","","","","","html-keyboard-response","52","463201","0.0-7.0-0.0-1.20","null","<span style='color:GreenYellow; font-size: 70px;'>正确! </span>","null","","","","","","","","","","","","","","","","","","","","","","","","","feedback_test","",""
"","","","","","psychophysics","53","464888","0.0-7.0-0.0-0.21","682","","arrowright","","","","","","","","","","","","","key","arrowright","6.060288808664302","853.3333333333334","476","arrowright","true","../../test_img/25.png","朋友","prac_matching_task","朋友","[""<img src=\""../../test_img/19.png\"" width=150 style=\""vertical-align:middle\"">---生人"",""<img src=\""../../test_img/25.png\"" width=150 style=\""vertical-align:middle\"">---朋友"",""<img src=\""../../test_img/12.png\"" width=150 style=\""vertical-align:middle\"">---自我""]","","",""
"","","","","","html-keyboard-response","54","465205","0.0-7.0-0.0-1.21","null","<span style='color:GreenYellow; font-size: 70px;'>正确! </span>","null","","","","","","","","","","","","","","","","","","","","","","","","","feedback_test","",""
"","","","","","psychophysics","55","467050","0.0-7.0-0.0-0.22","844","","arrowleft","","","","","","","","","","","","","key","arrowleft","6.057755775577558","853.3333333333334","476","arrowright","false","../../test_img/12.png","自我","prac_matching_task","自我","[""<img src=\""../../test_img/19.png\"" width=150 style=\""vertical-align:middle\"">---生人"",""<img src=\""../../test_img/25.png\"" width=150 style=\""vertical-align:middle\"">---朋友"",""<img src=\""../../test_img/12.png\"" width=150 style=\""vertical-align:middle\"">---自我""]","","",""
"","","","","","html-keyboard-response","56","467352","0.0-7.0-0.0-1.22","null","<span style='color:red; font-size: 70px;'>错误! </span>","null","","","","","","","","","","","","","","","","","","","","","","","","","feedback_test","",""
"","","","","","psychophysics","57","469232","0.0-7.0-0.0-0.23","875","","arrowleft","","","","","","","","","","","","","key","arrowleft","6.060194174757206","853.3333333333334","476","arrowleft","true","../../test_img/25.png","自我","prac_matching_task","朋友","[""<img src=\""../../test_img/19.png\"" width=150 style=\""vertical-align:middle\"">---生人"",""<img src=\""../../test_img/25.png\"" width=150 style=\""vertical-align:middle\"">---朋友"",""<img src=\""../../test_img/12.png\"" width=150 style=\""vertical-align:middle\"">---自我""]","","",""
"","","","","","html-keyboard-response","58","469548","0.0-7.0-0.0-1.23","null","<span style='color:GreenYellow; font-size: 70px;'>正确! </span>","null","","","","","","","","","","","","","","","","","","","","","","","","","feedback_test","",""
"","","","","","html-keyboard-response","59","502149","0.0-8.0","32599","<style>.context{color:white; font-size: 35px; line-height:40px}</style>                          <div><p class='context'>您正确回答了79% 的试次。</p ><p class='context'>您的平均反应时为961毫秒。</p ><p class='context'>恭喜您完成练习。按任意键进入知觉匹配任务正式实验。</p ><p style = 'color:lightgreen; font-size: 35px;' >正式实验与练习要求相同，请您尽可能又快又准地进行按键反应</p><p class='footer' style='font-size: 22px; line-height:40px;'>请将您右手的<span style='color: lightgreen;'>食指与无名指</span>放在电脑键盘的相应键位上进行按键。</p >","arrowright","","","","","","","","","","","","","","","","","","","","","","","","","","",""
"","","","","","psychophysics","60","504242","0.0-9.0-0.0-0.0-0.0-0.0","1093","","arrowleft","","","","","","","","","","","","","key","arrowleft","6.146902654867394","853.3333333333334","476","arrowleft","true","../../test_img/19.png","朋友","matching_task","生人","[""<img src=\""../../test_img/19.png\"" width=150 style=\""vertical-align:middle\"">---生人"",""<img src=\""../../test_img/25.png\"" width=150 style=\""vertical-align:middle\"">---朋友"",""<img src=\""../../test_img/12.png\"" width=150 style=\""vertical-align:middle\"">---自我""]","","",""
"","","","","","html-keyboard-response","61","504750","0.0-9.0-0.0-0.0-0.0-1.0","null","<span style='color:GreenYellow; font-size: 70px;'>正确! </span>","null","","","","","","","","","","","","","","","","","","","","","","","","","feedback_test","",""
"","","","","","psychophysics","62","506617","0.0-9.0-0.0-0.0-0.0-0.1","862","","arrowleft","","","","","","","","","","","","","key","arrowleft","6.0602605863192185","853.3333333333334","476","arrowright","false","../../test_img/12.png","自我","matching_task","自我","[""<img src=\""../../test_img/19.png\"" width=150 style=\""vertical-align:middle\"">---生人"",""<img src=\""../../test_img/25.png\"" width=150 style=\""vertical-align:middle\"">---朋友"",""<img src=\""../../test_img/12.png\"" width=150 style=\""vertical-align:middle\"">---自我""]","","",""
"","","","","","html-keyboard-response","63","507129","0.0-9.0-0.0-0.0-0.0-1.1","null","<span style='color:red; font-size: 70px;'>错误! </span>","null","","","","","","","","","","","","","","","","","","","","","","","","","feedback_test","",""
"","","","","","psychophysics","64","508783","0.0-9.0-0.0-0.0-0.0-0.2","652","","arrowright","","","","","","","","","","","","","key","arrowright","6.059926470587978","853.3333333333334","476","arrowright","true","../../test_img/12.png","自我","matching_task","自我","[""<img src=\""../../test_img/19.png\"" width=150 style=\""vertical-align:middle\"">---生人"",""<img src=\""../../test_img/25.png\"" width=150 style=\""vertical-align:middle\"">---朋友"",""<img src=\""../../test_img/12.png\"" width=150 style=\""vertical-align:middle\"">---自我""]","","",""
"","","","","","html-keyboard-response","65","509293","0.0-9.0-0.0-0.0-0.0-1.2","null","<span style='color:GreenYellow; font-size: 70px;'>正确! </span>","null","","","","","","","","","","","","","","","","","","","","","","","","","feedback_test","",""
"","","","","","psychophysics","66","511237","0.0-9.0-0.0-0.0-0.0-0.3","942","","arrowleft","","","","","","","","","","","","","key","arrowleft","6.059999999999855","853.3333333333334","476","arrowleft","true","../../test_img/12.png","朋友","matching_task","自我","[""<img src=\""../../test_img/19.png\"" width=150 style=\""vertical-align:middle\"">---生人"",""<img src=\""../../test_img/25.png\"" width=150 style=\""vertical-align:middle\"">---朋友"",""<img src=\""../../test_img/12.png\"" width=150 style=\""vertical-align:middle\"">---自我""]","","",""
"","","","","","html-keyboard-response","67","511742","0.0-9.0-0.0-0.0-0.0-1.3","null","<span style='color:GreenYellow; font-size: 70px;'>正确! </span>","null","","","","","","","","","","","","","","","","","","","","","","","","","feedback_test","",""
"","","","","","psychophysics","68","513578","0.0-9.0-0.0-0.0-0.0-0.4","835","","arrowright","","","","","","","","","","","","","key","arrowright","6.066225165562914","853.3333333333334","476","arrowright","true","../../test_img/19.png","生人","matching_task","生人","[""<img src=\""../../test_img/19.png\"" width=150 style=\""vertical-align:middle\"">---生人"",""<img src=\""../../test_img/25.png\"" width=150 style=\""vertical-align:middle\"">---朋友"",""<img src=\""../../test_img/12.png\"" width=150 style=\""vertical-align:middle\"">---自我""]","","",""
"","","","","","html-keyboard-response","69","514079","0.0-9.0-0.0-0.0-0.0-1.4","null","<span style='color:GreenYellow; font-size: 70px;'>正确! </span>","null","","","","","","","","","","","","","","","","","","","","","","","","","feedback_test","",""
"","","","","","psychophysics","70","516012","0.0-9.0-0.0-0.0-0.0-0.5","929","","arrowleft","","","","","","","","","","","","","key","arrowleft","6.060062893081688","853.3333333333334","476","arrowleft","true","../../test_img/19.png","自我","matching_task","生人","[""<img src=\""../../test_img/19.png\"" width=150 style=\""vertical-align:middle\"">---生人"",""<img src=\""../../test_img/25.png\"" width=150 style=\""vertical-align:middle\"">---朋友"",""<img src=\""../../test_img/12.png\"" width=150 style=\""vertical-align:middle\"">---自我""]","","",""
"","","","","","html-keyboard-response","71","516526","0.0-9.0-0.0-0.0-0.0-1.5","null","<span style='color:GreenYellow; font-size: 70px;'>正确! </span>","null","","","","","","","","","","","","","","","","","","","","","","","","","feedback_test","",""
"","","","","","psychophysics","72","518632","0.0-9.0-0.0-0.0-0.0-0.6","1101","","arrowleft","","","","","","","","","","","","","key","arrowleft","6.0606936416184976","853.3333333333334","476","arrowleft","true","../../test_img/12.png","生人","matching_task","自我","[""<img src=\""../../test_img/19.png\"" width=150 style=\""vertical-align:middle\"">---生人"",""<img src=\""../../test_img/25.png\"" width=150 style=\""vertical-align:middle\"">---朋友"",""<img src=\""../../test_img/12.png\"" width=150 style=\""vertical-align:middle\"">---自我""]","","",""
"","","","","","html-keyboard-response","73","519134","0.0-9.0-0.0-0.0-0.0-1.6","null","<span style='color:GreenYellow; font-size: 70px;'>正确! </span>","null","","","","","","","","","","","","","","","","","","","","","","","","","feedback_test","",""
"","","","","","psychophysics","74","521001","0.0-9.0-0.0-0.0-0.0-0.7","864","","arrowleft","","","","","","","","","","","","","key","arrowleft","6.0605863192181655","853.3333333333334","476","arrowleft","true","../../test_img/25.png","自我","matching_task","朋友","[""<img src=\""../../test_img/19.png\"" width=150 style=\""vertical-align:middle\"">---生人"",""<img src=\""../../test_img/25.png\"" width=150 style=\""vertical-align:middle\"">---朋友"",""<img src=\""../../test_img/12.png\"" width=150 style=\""vertical-align:middle\"">---自我""]","","",""
"","","","","","html-keyboard-response","75","521509","0.0-9.0-0.0-0.0-0.0-1.7","null","<span style='color:GreenYellow; font-size: 70px;'>正确! </span>","null","","","","","","","","","","","","","","","","","","","","","","","","","feedback_test","",""
"","","","","","psychophysics","76","523227","0.0-9.0-0.0-0.0-0.0-0.8","714","","arrowright","","","","","","","","","","","","","key","arrowright","6.060283687943262","853.3333333333334","476","arrowright","true","../../test_img/25.png","朋友","matching_task","朋友","[""<img src=\""../../test_img/19.png\"" width=150 style=\""vertical-align:middle\"">---生人"",""<img src=\""../../test_img/25.png\"" width=150 style=\""vertical-align:middle\"">---朋友"",""<img src=\""../../test_img/12.png\"" width=150 style=\""vertical-align:middle\"">---自我""]","","",""
"","","","","","html-keyboard-response","77","523730","0.0-9.0-0.0-0.0-0.0-1.8","null","<span style='color:GreenYellow; font-size: 70px;'>正确! </span>","null","","","","","","","","","","","","","","","","","","","","","","","","","feedback_test","",""
"","","","","","psychophysics","78","525558","0.0-9.0-0.0-0.0-0.0-0.9","828","","arrowleft","","","","","","","","","","","","","key","arrowleft","6.056666666666667","853.3333333333334","476","arrowleft","true","../../test_img/25.png","生人","matching_task","朋友","[""<img src=\""../../test_img/19.png\"" width=150 style=\""vertical-align:middle\"">---生人"",""<img src=\""../../test_img/25.png\"" width=150 style=\""vertical-align:middle\"">---朋友"",""<img src=\""../../test_img/12.png\"" width=150 style=\""vertical-align:middle\"">---自我""]","","",""
"","","","","","html-keyboard-response","79","526061","0.0-9.0-0.0-0.0-0.0-1.9","null","<span style='color:GreenYellow; font-size: 70px;'>正确! </span>","null","","","","","","","","","","","","","","","","","","","","","","","","","feedback_test","",""
"","","","","","psychophysics","80","528092","0.0-9.0-0.0-0.0-0.0-0.10","1028","","arrowleft","","","","","","","","","","","","","key","arrowleft","6.060179640718493","853.3333333333334","476","arrowright","false","../../test_img/19.png","生人","matching_task","生人","[""<img src=\""../../test_img/19.png\"" width=150 style=\""vertical-align:middle\"">---生人"",""<img src=\""../../test_img/25.png\"" width=150 style=\""vertical-align:middle\"">---朋友"",""<img src=\""../../test_img/12.png\"" width=150 style=\""vertical-align:middle\"">---自我""]","","",""
"","","","","","html-keyboard-response","81","528597","0.0-9.0-0.0-0.0-0.0-1.10","null","<span style='color:red; font-size: 70px;'>错误! </span>","null","","","","","","","","","","","","","","","","","","","","","","","","","feedback_test","",""
"","","","","","psychophysics","82","530354","0.0-9.0-0.0-0.0-0.0-0.11","751","","arrowright","","","","","","","","","","","","","key","arrowright","6.060416666666748","853.3333333333334","476","arrowright","true","../../test_img/25.png","朋友","matching_task","朋友","[""<img src=\""../../test_img/19.png\"" width=150 style=\""vertical-align:middle\"">---生人"",""<img src=\""../../test_img/25.png\"" width=150 style=\""vertical-align:middle\"">---朋友"",""<img src=\""../../test_img/12.png\"" width=150 style=\""vertical-align:middle\"">---自我""]","","",""
"","","","","","html-keyboard-response","83","530865","0.0-9.0-0.0-0.0-0.0-1.11","null","<span style='color:GreenYellow; font-size: 70px;'>正确! </span>","null","","","","","","","","","","","","","","","","","","","","","","","","","feedback_test","",""
"","","","","","psychophysics","84","532679","0.0-9.0-0.0-0.0-0.0-0.12","809","","arrowright","","","","","","","","","","","","","key","arrowright","6.060402684563758","853.3333333333334","476","arrowright","true","../../test_img/12.png","自我","matching_task","自我","[""<img src=\""../../test_img/19.png\"" width=150 style=\""vertical-align:middle\"">---生人"",""<img src=\""../../test_img/25.png\"" width=150 style=\""vertical-align:middle\"">---朋友"",""<img src=\""../../test_img/12.png\"" width=150 style=\""vertical-align:middle\"">---自我""]","","",""
"","","","","","html-keyboard-response","85","533185","0.0-9.0-0.0-0.0-0.0-1.12","null","<span style='color:GreenYellow; font-size: 70px;'>正确! </span>","null","","","","","","","","","","","","","","","","","","","","","","","","","feedback_test","",""
"","","","","","psychophysics","86","534950","0.0-9.0-0.0-0.0-0.0-0.13","764","","arrowright","","","","","","","","","","","","","key","arrowright","6.060689655172333","853.3333333333334","476","arrowright","true","../../test_img/25.png","朋友","matching_task","朋友","[""<img src=\""../../test_img/19.png\"" width=150 style=\""vertical-align:middle\"">---生人"",""<img src=\""../../test_img/25.png\"" width=150 style=\""vertical-align:middle\"">---朋友"",""<img src=\""../../test_img/12.png\"" width=150 style=\""vertical-align:middle\"">---自我""]","","",""
"","","","","","html-keyboard-response","87","535458","0.0-9.0-0.0-0.0-0.0-1.13","null","<span style='color:GreenYellow; font-size: 70px;'>正确! </span>","null","","","","","","","","","","","","","","","","","","","","","","","","","feedback_test","",""
"","","","","","psychophysics","88","537160","0.0-9.0-0.0-0.0-0.0-0.14","700","","arrowleft","","","","","","","","","","","","","key","arrowleft","6.060215053763608","853.3333333333334","476","arrowleft","true","../../test_img/12.png","朋友","matching_task","自我","[""<img src=\""../../test_img/19.png\"" width=150 style=\""vertical-align:middle\"">---生人"",""<img src=\""../../test_img/25.png\"" width=150 style=\""vertical-align:middle\"">---朋友"",""<img src=\""../../test_img/12.png\"" width=150 style=\""vertical-align:middle\"">---自我""]","","",""
"","","","","","html-keyboard-response","89","537667","0.0-9.0-0.0-0.0-0.0-1.14","null","<span style='color:GreenYellow; font-size: 70px;'>正确! </span>","null","","","","","","","","","","","","","","","","","","","","","","","","","feedback_test","",""
"","","","","","psychophysics","90","539447","0.0-9.0-0.0-0.0-0.0-0.15","777","","arrowleft","","","","","","","","","","","","","key","arrowleft","6.060068259385586","853.3333333333334","476","arrowleft","true","../../test_img/12.png","生人","matching_task","自我","[""<img src=\""../../test_img/19.png\"" width=150 style=\""vertical-align:middle\"">---生人"",""<img src=\""../../test_img/25.png\"" width=150 style=\""vertical-align:middle\"">---朋友"",""<img src=\""../../test_img/12.png\"" width=150 style=\""vertical-align:middle\"">---自我""]","","",""
"","","","","","html-keyboard-response","91","539952","0.0-9.0-0.0-0.0-0.0-1.15","null","<span style='color:GreenYellow; font-size: 70px;'>正确! </span>","null","","","","","","","","","","","","","","","","","","","","","","","","","feedback_test","",""
"","","","","","psychophysics","92","541781","0.0-9.0-0.0-0.0-0.0-0.16","826","","arrowleft","","","","","","","","","","","","","key","arrowleft","6.0604651162793015","853.3333333333334","476","arrowleft","true","../../test_img/25.png","生人","matching_task","朋友","[""<img src=\""../../test_img/19.png\"" width=150 style=\""vertical-align:middle\"">---生人"",""<img src=\""../../test_img/25.png\"" width=150 style=\""vertical-align:middle\"">---朋友"",""<img src=\""../../test_img/12.png\"" width=150 style=\""vertical-align:middle\"">---自我""]","","",""
"","","","","","html-keyboard-response","93","542286","0.0-9.0-0.0-0.0-0.0-1.16","null","<span style='color:GreenYellow; font-size: 70px;'>正确! </span>","null","","","","","","","","","","","","","","","","","","","","","","","","","feedback_test","",""
"","","","","","psychophysics","94","544308","0.0-9.0-0.0-0.0-0.0-0.17","1020","","arrowleft","","","","","","","","","","","","","key","arrowleft","6.056927710843444","853.3333333333334","476","arrowleft","true","../../test_img/19.png","朋友","matching_task","生人","[""<img src=\""../../test_img/19.png\"" width=150 style=\""vertical-align:middle\"">---生人"",""<img src=\""../../test_img/25.png\"" width=150 style=\""vertical-align:middle\"">---朋友"",""<img src=\""../../test_img/12.png\"" width=150 style=\""vertical-align:middle\"">---自我""]","","",""
"","","","","","html-keyboard-response","95","544811","0.0-9.0-0.0-0.0-0.0-1.17","null","<span style='color:GreenYellow; font-size: 70px;'>正确! </span>","null","","","","","","","","","","","","","","","","","","","","","","","","","feedback_test","",""
"","","","","","psychophysics","96","546518","0.0-9.0-0.0-0.0-0.0-0.18","703","","arrowright","","","","","","","","","","","","","key","arrowright","6.082142857142857","853.3333333333334","476","arrowright","true","../../test_img/25.png","朋友","matching_task","朋友","[""<img src=\""../../test_img/19.png\"" width=150 style=\""vertical-align:middle\"">---生人"",""<img src=\""../../test_img/25.png\"" width=150 style=\""vertical-align:middle\"">---朋友"",""<img src=\""../../test_img/12.png\"" width=150 style=\""vertical-align:middle\"">---自我""]","","",""
"","","","","","html-keyboard-response","97","547034","0.0-9.0-0.0-0.0-0.0-1.18","null","<span style='color:GreenYellow; font-size: 70px;'>正确! </span>","null","","","","","","","","","","","","","","","","","","","","","","","","","feedback_test","",""
"","","","","","psychophysics","98","548948","0.0-9.0-0.0-0.0-0.0-0.19","909","","arrowright","","","","","","","","","","","","","key","arrowright","6.099361022364143","853.3333333333334","476","arrowright","true","../../test_img/19.png","生人","matching_task","生人","[""<img src=\""../../test_img/19.png\"" width=150 style=\""vertical-align:middle\"">---生人"",""<img src=\""../../test_img/25.png\"" width=150 style=\""vertical-align:middle\"">---朋友"",""<img src=\""../../test_img/12.png\"" width=150 style=\""vertical-align:middle\"">---自我""]","","",""
"","","","","","html-keyboard-response","99","549455","0.0-9.0-0.0-0.0-0.0-1.19","null","<span style='color:GreenYellow; font-size: 70px;'>正确! </span>","null","","","","","","","","","","","","","","","","","","","","","","","","","feedback_test","",""
"","","","","","psychophysics","100","551620","0.0-9.0-0.0-0.0-0.0-0.20","1163","","arrowright","","","","","","","","","","","","","key","arrowright","6.060393258426966","853.3333333333334","476","arrowright","true","../../test_img/19.png","生人","matching_task","生人","[""<img src=\""../../test_img/19.png\"" width=150 style=\""vertical-align:middle\"">---生人"",""<img src=\""../../test_img/25.png\"" width=150 style=\""vertical-align:middle\"">---朋友"",""<img src=\""../../test_img/12.png\"" width=150 style=\""vertical-align:middle\"">---自我""]","","",""
"","","","","","html-keyboard-response","101","552129","0.0-9.0-0.0-0.0-0.0-1.20","null","<span style='color:GreenYellow; font-size: 70px;'>正确! </span>","null","","","","","","","","","","","","","","","","","","","","","","","","","feedback_test","",""
"","","","","","psychophysics","102","553795","0.0-9.0-0.0-0.0-0.0-0.21","664","","arrowleft","","","","","","","","","","","","","key","arrowleft","6.060073260073345","853.3333333333334","476","arrowleft","true","../../test_img/25.png","自我","matching_task","朋友","[""<img src=\""../../test_img/19.png\"" width=150 style=\""vertical-align:middle\"">---生人"",""<img src=\""../../test_img/25.png\"" width=150 style=\""vertical-align:middle\"">---朋友"",""<img src=\""../../test_img/12.png\"" width=150 style=\""vertical-align:middle\"">---自我""]","","",""
"","","","","","html-keyboard-response","103","554302","0.0-9.0-0.0-0.0-0.0-1.21","null","<span style='color:GreenYellow; font-size: 70px;'>正确! </span>","null","","","","","","","","","","","","","","","","","","","","","","","","","feedback_test","",""
"","","","","","psychophysics","104","555925","0.0-9.0-0.0-0.0-0.0-0.22","620","","arrowright","","","","","","","","","","","","","key","arrowright","6.083082706767267","853.3333333333334","476","arrowright","true","../../test_img/12.png","自我","matching_task","自我","[""<img src=\""../../test_img/19.png\"" width=150 style=\""vertical-align:middle\"">---生人"",""<img src=\""../../test_img/25.png\"" width=150 style=\""vertical-align:middle\"">---朋友"",""<img src=\""../../test_img/12.png\"" width=150 style=\""vertical-align:middle\"">---自我""]","","",""
"","","","","","html-keyboard-response","105","556427","0.0-9.0-0.0-0.0-0.0-1.22","null","<span style='color:GreenYellow; font-size: 70px;'>正确! </span>","null","","","","","","","","","","","","","","","","","","","","","","","","","feedback_test","",""
"","","","","","psychophysics","106","558176","0.0-9.0-0.0-0.0-0.0-0.23","743","","arrowleft","","","","","","","","","","","","","key","arrowleft","6.06236933797877","853.3333333333334","476","arrowleft","true","../../test_img/19.png","自我","matching_task","生人","[""<img src=\""../../test_img/19.png\"" width=150 style=\""vertical-align:middle\"">---生人"",""<img src=\""../../test_img/25.png\"" width=150 style=\""vertical-align:middle\"">---朋友"",""<img src=\""../../test_img/12.png\"" width=150 style=\""vertical-align:middle\"">---自我""]","","",""
"","","","","","html-keyboard-response","107","558686","0.0-9.0-0.0-0.0-0.0-1.23","null","<span style='color:GreenYellow; font-size: 70px;'>正确! </span>","null","","","","","","","","","","","","","","","","","","","","","","","","","feedback_test","",""
"","","","","","psychophysics","108","560927","0.0-9.0-0.0-0.0-0.0-0.24","1239","","arrowleft","","","","","","","","","","","","","key","arrowleft","6.0573369565216755","853.3333333333334","476","arrowleft","true","../../test_img/12.png","生人","matching_task","自我","[""<img src=\""../../test_img/19.png\"" width=150 style=\""vertical-align:middle\"">---生人"",""<img src=\""../../test_img/25.png\"" width=150 style=\""vertical-align:middle\"">---朋友"",""<img src=\""../../test_img/12.png\"" width=150 style=\""vertical-align:middle\"">---自我""]","","",""
"","","","","","html-keyboard-response","109","561439","0.0-9.0-0.0-0.0-0.0-1.24","null","<span style='color:GreenYellow; font-size: 70px;'>正确! </span>","null","","","","","","","","","","","","","","","","","","","","","","","","","feedback_test","",""
"","","","","","psychophysics","110","563105","0.0-9.0-0.0-0.0-0.0-0.25","661","","arrowright","","","","","","","","","","","","","key","arrowright","6.060073260072919","853.3333333333334","476","arrowright","true","../../test_img/25.png","朋友","matching_task","朋友","[""<img src=\""../../test_img/19.png\"" width=150 style=\""vertical-align:middle\"">---生人"",""<img src=\""../../test_img/25.png\"" width=150 style=\""vertical-align:middle\"">---朋友"",""<img src=\""../../test_img/12.png\"" width=150 style=\""vertical-align:middle\"">---自我""]","","",""
"","","","","","html-keyboard-response","111","563615","0.0-9.0-0.0-0.0-0.0-1.25","null","<span style='color:GreenYellow; font-size: 70px;'>正确! </span>","null","","","","","","","","","","","","","","","","","","","","","","","","","feedback_test","",""
"","","","","","psychophysics","112","565512","0.0-9.0-0.0-0.0-0.0-0.26","892","","arrowleft","","","","","","","","","","","","","key","arrowleft","6.099677419354914","853.3333333333334","476","arrowleft","true","../../test_img/25.png","自我","matching_task","朋友","[""<img src=\""../../test_img/19.png\"" width=150 style=\""vertical-align:middle\"">---生人"",""<img src=\""../../test_img/25.png\"" width=150 style=\""vertical-align:middle\"">---朋友"",""<img src=\""../../test_img/12.png\"" width=150 style=\""vertical-align:middle\"">---自我""]","","",""
"","","","","","html-keyboard-response","113","566025","0.0-9.0-0.0-0.0-0.0-1.26","null","<span style='color:GreenYellow; font-size: 70px;'>正确! </span>","null","","","","","","","","","","","","","","","","","","","","","","","","","feedback_test","",""
"","","","","","psychophysics","114","567694","0.0-9.0-0.0-0.0-0.0-0.27","668","","arrowright","","","","","","","","","","","","","key","arrowright","6.056043956044126","853.3333333333334","476","arrowright","true","../../test_img/19.png","生人","matching_task","生人","[""<img src=\""../../test_img/19.png\"" width=150 style=\""vertical-align:middle\"">---生人"",""<img src=\""../../test_img/25.png\"" width=150 style=\""vertical-align:middle\"">---朋友"",""<img src=\""../../test_img/12.png\"" width=150 style=\""vertical-align:middle\"">---自我""]","","",""
"","","","","","html-keyboard-response","115","568203","0.0-9.0-0.0-0.0-0.0-1.27","null","<span style='color:GreenYellow; font-size: 70px;'>正确! </span>","null","","","","","","","","","","","","","","","","","","","","","","","","","feedback_test","",""
"","","","","","psychophysics","116","570151","0.0-9.0-0.0-0.0-0.0-0.28","943","","arrowleft","","","","","","","","","","","","","key","arrowleft","6.059999999999855","853.3333333333334","476","arrowleft","true","../../test_img/12.png","朋友","matching_task","自我","[""<img src=\""../../test_img/19.png\"" width=150 style=\""vertical-align:middle\"">---生人"",""<img src=\""../../test_img/25.png\"" width=150 style=\""vertical-align:middle\"">---朋友"",""<img src=\""../../test_img/12.png\"" width=150 style=\""vertical-align:middle\"">---自我""]","","",""
"","","","","","html-keyboard-response","117","570656","0.0-9.0-0.0-0.0-0.0-1.28","null","<span style='color:GreenYellow; font-size: 70px;'>正确! </span>","null","","","","","","","","","","","","","","","","","","","","","","","","","feedback_test","",""
"","","","","","psychophysics","118","572493","0.0-9.0-0.0-0.0-0.0-0.29","836","","arrowleft","","","","","","","","","","","","","key","arrowleft","6.060264900662483","853.3333333333334","476","arrowleft","true","../../test_img/25.png","生人","matching_task","朋友","[""<img src=\""../../test_img/19.png\"" width=150 style=\""vertical-align:middle\"">---生人"",""<img src=\""../../test_img/25.png\"" width=150 style=\""vertical-align:middle\"">---朋友"",""<img src=\""../../test_img/12.png\"" width=150 style=\""vertical-align:middle\"">---自我""]","","",""
"","","","","","html-keyboard-response","119","573008","0.0-9.0-0.0-0.0-0.0-1.29","null","<span style='color:GreenYellow; font-size: 70px;'>正确! </span>","null","","","","","","","","","","","","","","","","","","","","","","","","","feedback_test","",""
"","","","","","psychophysics","120","574802","0.0-9.0-0.0-0.0-0.0-0.30","788","","arrowright","","","","","","","","","","","","","key","arrowright","6.060338983051006","853.3333333333334","476","arrowright","true","../../test_img/12.png","自我","matching_task","自我","[""<img src=\""../../test_img/19.png\"" width=150 style=\""vertical-align:middle\"">---生人"",""<img src=\""../../test_img/25.png\"" width=150 style=\""vertical-align:middle\"">---朋友"",""<img src=\""../../test_img/12.png\"" width=150 style=\""vertical-align:middle\"">---自我""]","","",""
"","","","","","html-keyboard-response","121","575310","0.0-9.0-0.0-0.0-0.0-1.30","null","<span style='color:GreenYellow; font-size: 70px;'>正确! </span>","null","","","","","","","","","","","","","","","","","","","","","","","","","feedback_test","",""
"","","","","","psychophysics","122","577034","0.0-9.0-0.0-0.0-0.0-0.31","722","","arrowright","","","","","","","","","","","","","key","arrowright","6.060424028268469","853.3333333333334","476","arrowright","true","../../test_img/19.png","生人","matching_task","生人","[""<img src=\""../../test_img/19.png\"" width=150 style=\""vertical-align:middle\"">---生人"",""<img src=\""../../test_img/25.png\"" width=150 style=\""vertical-align:middle\"">---朋友"",""<img src=\""../../test_img/12.png\"" width=150 style=\""vertical-align:middle\"">---自我""]","","",""
"","","","","","html-keyboard-response","123","577535","0.0-9.0-0.0-0.0-0.0-1.31","null","<span style='color:GreenYellow; font-size: 70px;'>正确! </span>","null","","","","","","","","","","","","","","","","","","","","","","","","","feedback_test","",""
"","","","","","psychophysics","124","579416","0.0-9.0-0.0-0.0-0.0-0.32","875","","arrowright","","","","","","","","","","","","","key","arrowright","6.060517799352977","853.3333333333334","476","arrowright","true","../../test_img/12.png","自我","matching_task","自我","[""<img src=\""../../test_img/19.png\"" width=150 style=\""vertical-align:middle\"">---生人"",""<img src=\""../../test_img/25.png\"" width=150 style=\""vertical-align:middle\"">---朋友"",""<img src=\""../../test_img/12.png\"" width=150 style=\""vertical-align:middle\"">---自我""]","","",""
"","","","","","html-keyboard-response","125","579922","0.0-9.0-0.0-0.0-0.0-1.32","null","<span style='color:GreenYellow; font-size: 70px;'>正确! </span>","null","","","","","","","","","","","","","","","","","","","","","","","","","feedback_test","",""
"","","","","","psychophysics","126","581587","0.0-9.0-0.0-0.0-0.0-0.33","664","","arrowright","","","","","","","","","","","","","key","arrowright","6.06043956043956","853.3333333333334","476","arrowright","true","../../test_img/25.png","朋友","matching_task","朋友","[""<img src=\""../../test_img/19.png\"" width=150 style=\""vertical-align:middle\"">---生人"",""<img src=\""../../test_img/25.png\"" width=150 style=\""vertical-align:middle\"">---朋友"",""<img src=\""../../test_img/12.png\"" width=150 style=\""vertical-align:middle\"">---自我""]","","",""
"","","","","","html-keyboard-response","127","582102","0.0-9.0-0.0-0.0-0.0-1.33","null","<span style='color:GreenYellow; font-size: 70px;'>正确! </span>","null","","","","","","","","","","","","","","","","","","","","","","","","","feedback_test","",""
"","","","","","psychophysics","128","583954","0.0-9.0-0.0-0.0-0.0-0.34","850","","arrowleft","","","","","","","","","","","","","key","arrowleft","6.060655737704918","853.3333333333334","476","arrowleft","true","../../test_img/19.png","自我","matching_task","生人","[""<img src=\""../../test_img/19.png\"" width=150 style=\""vertical-align:middle\"">---生人"",""<img src=\""../../test_img/25.png\"" width=150 style=\""vertical-align:middle\"">---朋友"",""<img src=\""../../test_img/12.png\"" width=150 style=\""vertical-align:middle\"">---自我""]","","",""
"","","","","","html-keyboard-response","129","584463","0.0-9.0-0.0-0.0-0.0-1.34","null","<span style='color:GreenYellow; font-size: 70px;'>正确! </span>","null","","","","","","","","","","","","","","","","","","","","","","","","","feedback_test","",""
"","","","","","psychophysics","130","586452","0.0-9.0-0.0-0.0-0.0-0.35","984","","arrowleft","","","","","","","","","","","","","key","arrowleft","6.060550458715738","853.3333333333334","476","arrowleft","true","../../test_img/19.png","朋友","matching_task","生人","[""<img src=\""../../test_img/19.png\"" width=150 style=\""vertical-align:middle\"">---生人"",""<img src=\""../../test_img/25.png\"" width=150 style=\""vertical-align:middle\"">---朋友"",""<img src=\""../../test_img/12.png\"" width=150 style=\""vertical-align:middle\"">---自我""]","","",""
"","","","","","html-keyboard-response","131","586966","0.0-9.0-0.0-0.0-0.0-1.35","null","<span style='color:GreenYellow; font-size: 70px;'>正确! </span>","null","","","","","","","","","","","","","","","","","","","","","","","","","feedback_test","",""
"","","","","","psychophysics","132","588989","0.0-9.0-0.0-0.0-0.0-0.36","1018","","arrowleft","","","","","","","","","","","","","key","arrowleft","6.0602409638554215","853.3333333333334","476","arrowleft","true","../../test_img/12.png","朋友","matching_task","自我","[""<img src=\""../../test_img/19.png\"" width=150 style=\""vertical-align:middle\"">---生人"",""<img src=\""../../test_img/25.png\"" width=150 style=\""vertical-align:middle\"">---朋友"",""<img src=\""../../test_img/12.png\"" width=150 style=\""vertical-align:middle\"">---自我""]","","",""
"","","","","","html-keyboard-response","133","589499","0.0-9.0-0.0-0.0-0.0-1.36","null","<span style='color:GreenYellow; font-size: 70px;'>正确! </span>","null","","","","","","","","","","","","","","","","","","","","","","","","","feedback_test","",""
"","","","","","psychophysics","134","591180","0.0-9.0-0.0-0.0-0.0-0.37","676","","arrowright","","","","","","","","","","","","","key","arrowright","6.060507246376643","853.3333333333334","476","arrowright","true","../../test_img/25.png","朋友","matching_task","朋友","[""<img src=\""../../test_img/19.png\"" width=150 style=\""vertical-align:middle\"">---生人"",""<img src=\""../../test_img/25.png\"" width=150 style=\""vertical-align:middle\"">---朋友"",""<img src=\""../../test_img/12.png\"" width=150 style=\""vertical-align:middle\"">---自我""]","","",""
"","","","","","html-keyboard-response","135","591691","0.0-9.0-0.0-0.0-0.0-1.37","null","<span style='color:GreenYellow; font-size: 70px;'>正确! </span>","null","","","","","","","","","","","","","","","","","","","","","","","","","feedback_test","",""
"","","","","","psychophysics","136","593577","0.0-9.0-0.0-0.0-0.0-0.38","885","","arrowleft","","","","","","","","","","","","","key","arrowleft","6.119543973941596","853.3333333333334","476","arrowleft","true","../../test_img/25.png","自我","matching_task","朋友","[""<img src=\""../../test_img/19.png\"" width=150 style=\""vertical-align:middle\"">---生人"",""<img src=\""../../test_img/25.png\"" width=150 style=\""vertical-align:middle\"">---朋友"",""<img src=\""../../test_img/12.png\"" width=150 style=\""vertical-align:middle\"">---自我""]","","",""
"","","","","","html-keyboard-response","137","594090","0.0-9.0-0.0-0.0-0.0-1.38","null","<span style='color:GreenYellow; font-size: 70px;'>正确! </span>","null","","","","","","","","","","","","","","","","","","","","","","","","","feedback_test","",""
"","","","","","psychophysics","138","595957","0.0-9.0-0.0-0.0-0.0-0.39","866","","arrowleft","","","","","","","","","","","","","key","arrowleft","6.05718954248366","853.3333333333334","476","arrowleft","true","../../test_img/12.png","生人","matching_task","自我","[""<img src=\""../../test_img/19.png\"" width=150 style=\""vertical-align:middle\"">---生人"",""<img src=\""../../test_img/25.png\"" width=150 style=\""vertical-align:middle\"">---朋友"",""<img src=\""../../test_img/12.png\"" width=150 style=\""vertical-align:middle\"">---自我""]","","",""
"","","","","","html-keyboard-response","139","596473","0.0-9.0-0.0-0.0-0.0-1.39","null","<span style='color:GreenYellow; font-size: 70px;'>正确! </span>","null","","","","","","","","","","","","","","","","","","","","","","","","","feedback_test","",""
"","","","","","psychophysics","140","598348","0.0-9.0-0.0-0.0-0.0-0.40","868","","arrowleft","","","","","","","","","","","","","key","arrowleft","6.059740259740336","853.3333333333334","476","arrowright","false","../../test_img/19.png","生人","matching_task","生人","[""<img src=\""../../test_img/19.png\"" width=150 style=\""vertical-align:middle\"">---生人"",""<img src=\""../../test_img/25.png\"" width=150 style=\""vertical-align:middle\"">---朋友"",""<img src=\""../../test_img/12.png\"" width=150 style=\""vertical-align:middle\"">---自我""]","","",""
"","","","","","html-keyboard-response","141","598857","0.0-9.0-0.0-0.0-0.0-1.40","null","<span style='color:red; font-size: 70px;'>错误! </span>","null","","","","","","","","","","","","","","","","","","","","","","","","","feedback_test","",""
"","","","","","psychophysics","142","600591","0.0-9.0-0.0-0.0-0.0-0.41","729","","arrowleft","","","","","","","","","","","","","key","arrowleft","6.060350877193228","853.3333333333334","476","arrowleft","true","../../test_img/19.png","自我","matching_task","生人","[""<img src=\""../../test_img/19.png\"" width=150 style=\""vertical-align:middle\"">---生人"",""<img src=\""../../test_img/25.png\"" width=150 style=\""vertical-align:middle\"">---朋友"",""<img src=\""../../test_img/12.png\"" width=150 style=\""vertical-align:middle\"">---自我""]","","",""
"","","","","","html-keyboard-response","143","601103","0.0-9.0-0.0-0.0-0.0-1.41","null","<span style='color:GreenYellow; font-size: 70px;'>正确! </span>","null","","","","","","","","","","","","","","","","","","","","","","","","","feedback_test","",""
"","","","","","psychophysics","144","602844","0.0-9.0-0.0-0.0-0.0-0.42","740","","arrowright","","","","","","","","","","","","","key","arrowright","6.060350877192819","853.3333333333334","476","arrowright","true","../../test_img/12.png","自我","matching_task","自我","[""<img src=\""../../test_img/19.png\"" width=150 style=\""vertical-align:middle\"">---生人"",""<img src=\""../../test_img/25.png\"" width=150 style=\""vertical-align:middle\"">---朋友"",""<img src=\""../../test_img/12.png\"" width=150 style=\""vertical-align:middle\"">---自我""]","","",""
"","","","","","html-keyboard-response","145","603346","0.0-9.0-0.0-0.0-0.0-1.42","null","<span style='color:GreenYellow; font-size: 70px;'>正确! </span>","null","","","","","","","","","","","","","","","","","","","","","","","","","feedback_test","",""
"","","","","","psychophysics","146","605080","0.0-9.0-0.0-0.0-0.0-0.43","729","","arrowleft","","","","","","","","","","","","","key","arrowleft","6.060350877192819","853.3333333333334","476","arrowleft","true","../../test_img/25.png","生人","matching_task","朋友","[""<img src=\""../../test_img/19.png\"" width=150 style=\""vertical-align:middle\"">---生人"",""<img src=\""../../test_img/25.png\"" width=150 style=\""vertical-align:middle\"">---朋友"",""<img src=\""../../test_img/12.png\"" width=150 style=\""vertical-align:middle\"">---自我""]","","",""
"","","","","","html-keyboard-response","147","605593","0.0-9.0-0.0-0.0-0.0-1.43","null","<span style='color:GreenYellow; font-size: 70px;'>正确! </span>","null","","","","","","","","","","","","","","","","","","","","","","","","","feedback_test","",""
"","","","","","psychophysics","148","607688","0.0-9.0-0.0-0.0-0.0-0.44","1094","","arrowright","","","","","","","","","","","","","key","arrowright","6.072011661807444","853.3333333333334","476","arrowright","true","../../test_img/12.png","自我","matching_task","自我","[""<img src=\""../../test_img/19.png\"" width=150 style=\""vertical-align:middle\"">---生人"",""<img src=\""../../test_img/25.png\"" width=150 style=\""vertical-align:middle\"">---朋友"",""<img src=\""../../test_img/12.png\"" width=150 style=\""vertical-align:middle\"">---自我""]","","",""
"","","","","","html-keyboard-response","149","608202","0.0-9.0-0.0-0.0-0.0-1.44","null","<span style='color:GreenYellow; font-size: 70px;'>正确! </span>","null","","","","","","","","","","","","","","","","","","","","","","","","","feedback_test","",""
"","","","","","psychophysics","150","609939","0.0-9.0-0.0-0.0-0.0-0.45","733","","arrowright","","","","","","","","","","","","","key","arrowright","6.081690140845317","853.3333333333334","476","arrowright","true","../../test_img/25.png","朋友","matching_task","朋友","[""<img src=\""../../test_img/19.png\"" width=150 style=\""vertical-align:middle\"">---生人"",""<img src=\""../../test_img/25.png\"" width=150 style=\""vertical-align:middle\"">---朋友"",""<img src=\""../../test_img/12.png\"" width=150 style=\""vertical-align:middle\"">---自我""]","","",""
"","","","","","html-keyboard-response","151","610439","0.0-9.0-0.0-0.0-0.0-1.45","null","<span style='color:GreenYellow; font-size: 70px;'>正确! </span>","null","","","","","","","","","","","","","","","","","","","","","","","","","feedback_test","",""
"","","","","","psychophysics","152","612594","0.0-9.0-0.0-0.0-0.0-0.46","1151","","arrowright","","","","","","","","","","","","","key","arrowright","6.0601694915255555","853.3333333333334","476","arrowright","true","../../test_img/19.png","生人","matching_task","生人","[""<img src=\""../../test_img/19.png\"" width=150 style=\""vertical-align:middle\"">---生人"",""<img src=\""../../test_img/25.png\"" width=150 style=\""vertical-align:middle\"">---朋友"",""<img src=\""../../test_img/12.png\"" width=150 style=\""vertical-align:middle\"">---自我""]","","",""
"","","","","","html-keyboard-response","153","613108","0.0-9.0-0.0-0.0-0.0-1.46","null","<span style='color:GreenYellow; font-size: 70px;'>正确! </span>","null","","","","","","","","","","","","","","","","","","","","","","","","","feedback_test","",""
"","","","","","psychophysics","154","615137","0.0-9.0-0.0-0.0-0.0-0.47","1028","","arrowleft","","","","","","","","","","","","","key","arrowleft","6.056756756756477","853.3333333333334","476","arrowleft","true","../../test_img/19.png","朋友","matching_task","生人","[""<img src=\""../../test_img/19.png\"" width=150 style=\""vertical-align:middle\"">---生人"",""<img src=\""../../test_img/25.png\"" width=150 style=\""vertical-align:middle\"">---朋友"",""<img src=\""../../test_img/12.png\"" width=150 style=\""vertical-align:middle\"">---自我""]","","",""
"","","","","","html-keyboard-response","155","615652","0.0-9.0-0.0-0.0-0.0-1.47","null","<span style='color:GreenYellow; font-size: 70px;'>正确! </span>","null","","","","","","","","","","","","","","","","","","","","","","","","","feedback_test","",""
"","","","","","psychophysics","156","617395","0.0-9.0-0.0-0.0-0.0-0.48","741","","arrowright","","","","","","","","","","","","","key","arrowright","6.06062717770043","853.3333333333334","476","arrowright","true","../../test_img/19.png","生人","matching_task","生人","[""<img src=\""../../test_img/19.png\"" width=150 style=\""vertical-align:middle\"">---生人"",""<img src=\""../../test_img/25.png\"" width=150 style=\""vertical-align:middle\"">---朋友"",""<img src=\""../../test_img/12.png\"" width=150 style=\""vertical-align:middle\"">---自我""]","","",""
"","","","","","html-keyboard-response","157","617904","0.0-9.0-0.0-0.0-0.0-1.48","null","<span style='color:GreenYellow; font-size: 70px;'>正确! </span>","null","","","","","","","","","","","","","","","","","","","","","","","","","feedback_test","",""
"","","","","","psychophysics","158","619479","0.0-9.0-0.0-0.0-0.0-0.49","570","","arrowright","","","","","","","","","","","","","key","arrowright","6.05984555984556","853.3333333333334","476","arrowright","true","../../test_img/25.png","朋友","matching_task","朋友","[""<img src=\""../../test_img/19.png\"" width=150 style=\""vertical-align:middle\"">---生人"",""<img src=\""../../test_img/25.png\"" width=150 style=\""vertical-align:middle\"">---朋友"",""<img src=\""../../test_img/12.png\"" width=150 style=\""vertical-align:middle\"">---自我""]","","",""
"","","","","","html-keyboard-response","159","619982","0.0-9.0-0.0-0.0-0.0-1.49","null","<span style='color:GreenYellow; font-size: 70px;'>正确! </span>","null","","","","","","","","","","","","","","","","","","","","","","","","","feedback_test","",""
"","","","","","psychophysics","160","621871","0.0-9.0-0.0-0.0-0.0-0.50","883","","arrowright","","","","","","","","","","","","","key","arrowright","6.060322580645386","853.3333333333334","476","arrowright","true","../../test_img/12.png","自我","matching_task","自我","[""<img src=\""../../test_img/19.png\"" width=150 style=\""vertical-align:middle\"">---生人"",""<img src=\""../../test_img/25.png\"" width=150 style=\""vertical-align:middle\"">---朋友"",""<img src=\""../../test_img/12.png\"" width=150 style=\""vertical-align:middle\"">---自我""]","","",""
"","","","","","html-keyboard-response","161","622383","0.0-9.0-0.0-0.0-0.0-1.50","null","<span style='color:GreenYellow; font-size: 70px;'>正确! </span>","null","","","","","","","","","","","","","","","","","","","","","","","","","feedback_test","",""
"","","","","","psychophysics","162","624234","0.0-9.0-0.0-0.0-0.0-0.51","846","","arrowleft","","","","","","","","","","","","","key","arrowleft","6.059868421052862","853.3333333333334","476","arrowleft","true","../../test_img/25.png","生人","matching_task","朋友","[""<img src=\""../../test_img/19.png\"" width=150 style=\""vertical-align:middle\"">---生人"",""<img src=\""../../test_img/25.png\"" width=150 style=\""vertical-align:middle\"">---朋友"",""<img src=\""../../test_img/12.png\"" width=150 style=\""vertical-align:middle\"">---自我""]","","",""
"","","","","","html-keyboard-response","163","624746","0.0-9.0-0.0-0.0-0.0-1.51","null","<span style='color:GreenYellow; font-size: 70px;'>正确! </span>","null","","","","","","","","","","","","","","","","","","","","","","","","","feedback_test","",""
"","","","","","psychophysics","164","626735","0.0-9.0-0.0-0.0-0.0-0.52","984","","arrowleft","","","","","","","","","","","","","key","arrowleft","6.060244648318257","853.3333333333334","476","arrowleft","true","../../test_img/12.png","生人","matching_task","自我","[""<img src=\""../../test_img/19.png\"" width=150 style=\""vertical-align:middle\"">---生人"",""<img src=\""../../test_img/25.png\"" width=150 style=\""vertical-align:middle\"">---朋友"",""<img src=\""../../test_img/12.png\"" width=150 style=\""vertical-align:middle\"">---自我""]","","",""
"","","","","","html-keyboard-response","165","627243","0.0-9.0-0.0-0.0-0.0-1.52","null","<span style='color:GreenYellow; font-size: 70px;'>正确! </span>","null","","","","","","","","","","","","","","","","","","","","","","","","","feedback_test","",""
"","","","","","psychophysics","166","629027","0.0-9.0-0.0-0.0-0.0-0.53","779","","arrowright","","","","","","","","","","","","","key","arrowright","6.060068259385586","853.3333333333334","476","arrowright","true","../../test_img/19.png","生人","matching_task","生人","[""<img src=\""../../test_img/19.png\"" width=150 style=\""vertical-align:middle\"">---生人"",""<img src=\""../../test_img/25.png\"" width=150 style=\""vertical-align:middle\"">---朋友"",""<img src=\""../../test_img/12.png\"" width=150 style=\""vertical-align:middle\"">---自我""]","","",""
"","","","","","html-keyboard-response","167","629532","0.0-9.0-0.0-0.0-0.0-1.53","null","<span style='color:GreenYellow; font-size: 70px;'>正确! </span>","null","","","","","","","","","","","","","","","","","","","","","","","","","feedback_test","",""
"","","","","","psychophysics","168","631405","0.0-9.0-0.0-0.0-0.0-0.54","872","","arrowleft","","","","","","","","","","","","","key","arrowleft","6.0602605863192185","853.3333333333334","476","arrowleft","true","../../test_img/19.png","自我","matching_task","生人","[""<img src=\""../../test_img/19.png\"" width=150 style=\""vertical-align:middle\"">---生人"",""<img src=\""../../test_img/25.png\"" width=150 style=\""vertical-align:middle\"">---朋友"",""<img src=\""../../test_img/12.png\"" width=150 style=\""vertical-align:middle\"">---自我""]","","",""
"","","","","","html-keyboard-response","169","631915","0.0-9.0-0.0-0.0-0.0-1.54","null","<span style='color:GreenYellow; font-size: 70px;'>正确! </span>","null","","","","","","","","","","","","","","","","","","","","","","","","","feedback_test","",""
"","","","","","psychophysics","170","633779","0.0-9.0-0.0-0.0-0.0-0.55","858","","arrowleft","","","","","","","","","","","","","key","arrowleft","6.0601307189543245","853.3333333333334","476","arrowleft","true","../../test_img/25.png","自我","matching_task","朋友","[""<img src=\""../../test_img/19.png\"" width=150 style=\""vertical-align:middle\"">---生人"",""<img src=\""../../test_img/25.png\"" width=150 style=\""vertical-align:middle\"">---朋友"",""<img src=\""../../test_img/12.png\"" width=150 style=\""vertical-align:middle\"">---自我""]","","",""
"","","","","","html-keyboard-response","171","634295","0.0-9.0-0.0-0.0-0.0-1.55","null","<span style='color:GreenYellow; font-size: 70px;'>正确! </span>","null","","","","","","","","","","","","","","","","","","","","","","","","","feedback_test","",""
"","","","","","psychophysics","172","636127","0.0-9.0-0.0-0.0-0.0-0.56","831","","arrowright","","","","","","","","","","","","","key","arrowright","6.055149501661052","853.3333333333334","476","arrowright","true","../../test_img/25.png","朋友","matching_task","朋友","[""<img src=\""../../test_img/19.png\"" width=150 style=\""vertical-align:middle\"">---生人"",""<img src=\""../../test_img/25.png\"" width=150 style=\""vertical-align:middle\"">---朋友"",""<img src=\""../../test_img/12.png\"" width=150 style=\""vertical-align:middle\"">---自我""]","","",""
"","","","","","html-keyboard-response","173","636631","0.0-9.0-0.0-0.0-0.0-1.56","null","<span style='color:GreenYellow; font-size: 70px;'>正确! </span>","null","","","","","","","","","","","","","","","","","","","","","","","","","feedback_test","",""
"","","","","","psychophysics","174","638441","0.0-9.0-0.0-0.0-0.0-0.57","805","","arrowleft","","","","","","","","","","","","","key","arrowleft","6.0606060606060606","853.3333333333334","476","arrowleft","true","../../test_img/19.png","朋友","matching_task","生人","[""<img src=\""../../test_img/19.png\"" width=150 style=\""vertical-align:middle\"">---生人"",""<img src=\""../../test_img/25.png\"" width=150 style=\""vertical-align:middle\"">---朋友"",""<img src=\""../../test_img/12.png\"" width=150 style=\""vertical-align:middle\"">---自我""]","","",""
"","","","","","html-keyboard-response","175","638950","0.0-9.0-0.0-0.0-0.0-1.57","null","<span style='color:GreenYellow; font-size: 70px;'>正确! </span>","null","","","","","","","","","","","","","","","","","","","","","","","","","feedback_test","",""
"","","","","","psychophysics","176","640740","0.0-9.0-0.0-0.0-0.0-0.58","789","","arrowright","","","","","","","","","","","","","key","arrowright","6.06020408163289","853.3333333333334","476","arrowright","true","../../test_img/12.png","自我","matching_task","自我","[""<img src=\""../../test_img/19.png\"" width=150 style=\""vertical-align:middle\"">---生人"",""<img src=\""../../test_img/25.png\"" width=150 style=\""vertical-align:middle\"">---朋友"",""<img src=\""../../test_img/12.png\"" width=150 style=\""vertical-align:middle\"">---自我""]","","",""
"","","","","","html-keyboard-response","177","641255","0.0-9.0-0.0-0.0-0.0-1.58","null","<span style='color:GreenYellow; font-size: 70px;'>正确! </span>","null","","","","","","","","","","","","","","","","","","","","","","","","","feedback_test","",""
"","","","","","psychophysics","178","643100","0.0-9.0-0.0-0.0-0.0-0.59","840","","arrowleft","","","","","","","","","","","","","key","arrowleft","6.0600660066008905","853.3333333333334","476","arrowleft","true","../../test_img/12.png","朋友","matching_task","自我","[""<img src=\""../../test_img/19.png\"" width=150 style=\""vertical-align:middle\"">---生人"",""<img src=\""../../test_img/25.png\"" width=150 style=\""vertical-align:middle\"">---朋友"",""<img src=\""../../test_img/12.png\"" width=150 style=\""vertical-align:middle\"">---自我""]","","",""
"","","","","","html-keyboard-response","179","643609","0.0-9.0-0.0-0.0-0.0-1.59","null","<span style='color:GreenYellow; font-size: 70px;'>正确! </span>","null","","","","","","","","","","","","","","","","","","","","","","","","","feedback_test","",""
"","","","","","psychophysics","180","645467","0.0-9.0-0.0-0.0-0.0-0.60","856","","arrowleft","","","","","","","","","","","","","key","arrowleft","6.060457516339869","853.3333333333334","476","arrowleft","true","../../test_img/25.png","生人","matching_task","朋友","[""<img src=\""../../test_img/19.png\"" width=150 style=\""vertical-align:middle\"">---生人"",""<img src=\""../../test_img/25.png\"" width=150 style=\""vertical-align:middle\"">---朋友"",""<img src=\""../../test_img/12.png\"" width=150 style=\""vertical-align:middle\"">---自我""]","","",""
"","","","","","html-keyboard-response","181","645979","0.0-9.0-0.0-0.0-0.0-1.60","null","<span style='color:GreenYellow; font-size: 70px;'>正确! </span>","null","","","","","","","","","","","","","","","","","","","","","","","","","feedback_test","",""
"","","","","","psychophysics","182","647740","0.0-9.0-0.0-0.0-0.0-0.61","759","","arrowright","","","","","","","","","","","","","key","arrowright","6.059310344827425","853.3333333333334","476","arrowright","true","../../test_img/12.png","自我","matching_task","自我","[""<img src=\""../../test_img/19.png\"" width=150 style=\""vertical-align:middle\"">---生人"",""<img src=\""../../test_img/25.png\"" width=150 style=\""vertical-align:middle\"">---朋友"",""<img src=\""../../test_img/12.png\"" width=150 style=\""vertical-align:middle\"">---自我""]","","",""
"","","","","","html-keyboard-response","183","648252","0.0-9.0-0.0-0.0-0.0-1.61","null","<span style='color:GreenYellow; font-size: 70px;'>正确! </span>","null","","","","","","","","","","","","","","","","","","","","","","","","","feedback_test","",""
"","","","","","psychophysics","184","649959","0.0-9.0-0.0-0.0-0.0-0.62","706","","arrowleft","","","","","","","","","","","","","key","arrowleft","6.06049822064057","853.3333333333334","476","arrowleft","true","../../test_img/12.png","生人","matching_task","自我","[""<img src=\""../../test_img/19.png\"" width=150 style=\""vertical-align:middle\"">---生人"",""<img src=\""../../test_img/25.png\"" width=150 style=\""vertical-align:middle\"">---朋友"",""<img src=\""../../test_img/12.png\"" width=150 style=\""vertical-align:middle\"">---自我""]","","",""
"","","","","","html-keyboard-response","185","650461","0.0-9.0-0.0-0.0-0.0-1.62","null","<span style='color:GreenYellow; font-size: 70px;'>正确! </span>","null","","","","","","","","","","","","","","","","","","","","","","","","","feedback_test","",""
"","","","","","psychophysics","186","652247","0.0-9.0-0.0-0.0-0.0-0.63","782","","arrowleft","","","","","","","","","","","","","key","arrowleft","6.060068259385586","853.3333333333334","476","arrowleft","true","../../test_img/19.png","朋友","matching_task","生人","[""<img src=\""../../test_img/19.png\"" width=150 style=\""vertical-align:middle\"">---生人"",""<img src=\""../../test_img/25.png\"" width=150 style=\""vertical-align:middle\"">---朋友"",""<img src=\""../../test_img/12.png\"" width=150 style=\""vertical-align:middle\"">---自我""]","","",""
"","","","","","html-keyboard-response","187","652749","0.0-9.0-0.0-0.0-0.0-1.63","null","<span style='color:GreenYellow; font-size: 70px;'>正确! </span>","null","","","","","","","","","","","","","","","","","","","","","","","","","feedback_test","",""
"","","","","","psychophysics","188","654471","0.0-9.0-0.0-0.0-0.0-0.64","721","","arrowright","","","","","","","","","","","","","key","arrowright","6.060424028268469","853.3333333333334","476","arrowright","true","../../test_img/12.png","自我","matching_task","自我","[""<img src=\""../../test_img/19.png\"" width=150 style=\""vertical-align:middle\"">---生人"",""<img src=\""../../test_img/25.png\"" width=150 style=\""vertical-align:middle\"">---朋友"",""<img src=\""../../test_img/12.png\"" width=150 style=\""vertical-align:middle\"">---自我""]","","",""
"","","","","","html-keyboard-response","189","654974","0.0-9.0-0.0-0.0-0.0-1.64","null","<span style='color:GreenYellow; font-size: 70px;'>正确! </span>","null","","","","","","","","","","","","","","","","","","","","","","","","","feedback_test","",""
"","","","","","psychophysics","190","656713","0.0-9.0-0.0-0.0-0.0-0.65","738","","arrowleft","","","","","","","","","","","","","key","arrowleft","6.060350877193228","853.3333333333334","476","arrowleft","true","../../test_img/25.png","自我","matching_task","朋友","[""<img src=\""../../test_img/19.png\"" width=150 style=\""vertical-align:middle\"">---生人"",""<img src=\""../../test_img/25.png\"" width=150 style=\""vertical-align:middle\"">---朋友"",""<img src=\""../../test_img/12.png\"" width=150 style=\""vertical-align:middle\"">---自我""]","","",""
"","","","","","html-keyboard-response","191","657225","0.0-9.0-0.0-0.0-0.0-1.65","null","<span style='color:GreenYellow; font-size: 70px;'>正确! </span>","null","","","","","","","","","","","","","","","","","","","","","","","","","feedback_test","",""
"","","","","","psychophysics","192","658848","0.0-9.0-0.0-0.0-0.0-0.66","619","","arrowright","","","","","","","","","","","","","key","arrowright","6.08308270676683","853.3333333333334","476","arrowleft","false","../../test_img/12.png","朋友","matching_task","自我","[""<img src=\""../../test_img/19.png\"" width=150 style=\""vertical-align:middle\"">---生人"",""<img src=\""../../test_img/25.png\"" width=150 style=\""vertical-align:middle\"">---朋友"",""<img src=\""../../test_img/12.png\"" width=150 style=\""vertical-align:middle\"">---自我""]","","",""
"","","","","","html-keyboard-response","193","659356","0.0-9.0-0.0-0.0-0.0-1.66","null","<span style='color:red; font-size: 70px;'>错误! </span>","null","","","","","","","","","","","","","","","","","","","","","","","","","feedback_test","",""
"","","","","","psychophysics","194","660988","0.0-9.0-0.0-0.0-0.0-0.67","626","","arrowright","","","","","","","","","","","","","key","arrowright","6.060447761193856","853.3333333333334","476","arrowright","true","../../test_img/25.png","朋友","matching_task","朋友","[""<img src=\""../../test_img/19.png\"" width=150 style=\""vertical-align:middle\"">---生人"",""<img src=\""../../test_img/25.png\"" width=150 style=\""vertical-align:middle\"">---朋友"",""<img src=\""../../test_img/12.png\"" width=150 style=\""vertical-align:middle\"">---自我""]","","",""
"","","","","","html-keyboard-response","195","661504","0.0-9.0-0.0-0.0-0.0-1.67","null","<span style='color:GreenYellow; font-size: 70px;'>正确! </span>","null","","","","","","","","","","","","","","","","","","","","","","","","","feedback_test","",""
"","","","","","psychophysics","196","663205","0.0-9.0-0.0-0.0-0.0-0.68","698","","arrowleft","","","","","","","","","","","","","key","arrowleft","6.060357142856811","853.3333333333334","476","arrowleft","true","../../test_img/19.png","自我","matching_task","生人","[""<img src=\""../../test_img/19.png\"" width=150 style=\""vertical-align:middle\"">---生人"",""<img src=\""../../test_img/25.png\"" width=150 style=\""vertical-align:middle\"">---朋友"",""<img src=\""../../test_img/12.png\"" width=150 style=\""vertical-align:middle\"">---自我""]","","",""
"","","","","","html-keyboard-response","197","663722","0.0-9.0-0.0-0.0-0.0-1.68","null","<span style='color:GreenYellow; font-size: 70px;'>正确! </span>","null","","","","","","","","","","","","","","","","","","","","","","","","","feedback_test","",""
"","","","","","psychophysics","198","665550","0.0-9.0-0.0-0.0-0.0-0.69","824","","arrowleft","","","","","","","","","","","","","key","arrowleft","6.060333333333256","853.3333333333334","476","arrowright","false","../../test_img/19.png","生人","matching_task","生人","[""<img src=\""../../test_img/19.png\"" width=150 style=\""vertical-align:middle\"">---生人"",""<img src=\""../../test_img/25.png\"" width=150 style=\""vertical-align:middle\"">---朋友"",""<img src=\""../../test_img/12.png\"" width=150 style=\""vertical-align:middle\"">---自我""]","","",""
"","","","","","html-keyboard-response","199","666054","0.0-9.0-0.0-0.0-0.0-1.69","null","<span style='color:red; font-size: 70px;'>错误! </span>","null","","","","","","","","","","","","","","","","","","","","","","","","","feedback_test","",""
"","","","","","psychophysics","200","667641","0.0-9.0-0.0-0.0-0.0-0.70","582","","arrowright","","","","","","","","","","","","","key","arrowright","6.060536398467612","853.3333333333334","476","arrowright","true","../../test_img/25.png","朋友","matching_task","朋友","[""<img src=\""../../test_img/19.png\"" width=150 style=\""vertical-align:middle\"">---生人"",""<img src=\""../../test_img/25.png\"" width=150 style=\""vertical-align:middle\"">---朋友"",""<img src=\""../../test_img/12.png\"" width=150 style=\""vertical-align:middle\"">---自我""]","","",""
"","","","","","html-keyboard-response","201","668146","0.0-9.0-0.0-0.0-0.0-1.70","null","<span style='color:GreenYellow; font-size: 70px;'>正确! </span>","null","","","","","","","","","","","","","","","","","","","","","","","","","feedback_test","",""
"","","","","","psychophysics","202","670004","0.0-9.0-0.0-0.0-0.0-0.71","854","","arrowright","","","","","","","","","","","","","key","arrowright","6.100330033003377","853.3333333333334","476","arrowright","true","../../test_img/19.png","生人","matching_task","生人","[""<img src=\""../../test_img/19.png\"" width=150 style=\""vertical-align:middle\"">---生人"",""<img src=\""../../test_img/25.png\"" width=150 style=\""vertical-align:middle\"">---朋友"",""<img src=\""../../test_img/12.png\"" width=150 style=\""vertical-align:middle\"">---自我""]","","",""
"","","","","","html-keyboard-response","203","670517","0.0-9.0-0.0-0.0-0.0-1.71","null","<span style='color:GreenYellow; font-size: 70px;'>正确! </span>","null","","","","","","","","","","","","","","","","","","","","","","","","","feedback_test","",""
"","","","","","html-keyboard-response","204","677414","0.0-9.0-0.0-0.0-1.0","6896","<style>.context{color:white; font-size: 35px; line-height:40px}</style>                          <div><p class='context'>您正确回答了93% 的试次。</p><p class='context'>您的平均反应时为825毫秒。</p><p class='context'>请按任意键进入休息</p></div>","arrowleft","","","","","","","","","","","","","","","","","","","","","","","","","","",""
"","","","","","html-button-response","205","682333","0.0-9.0-0.0-0.0-2.0","4919","
                    <p>知觉匹配任务中，您还剩余4组实验</p>
                    <p>现在是休息时间，当您结束休息后，您可以点击 结束休息 按钮 继续</p>
                    <p>建议休息时间还剩余<span id=""iii"">60</span>秒</p>","0","","","","","","","","","","","","","","","","","","","","","","","","","","",""
"","","","","","psychophysics","206","684469","0.0-9.0-0.0-0.0-0.1-0.72","1133","","arrowright","","","","","","","","","","","","","key","arrowright","6.626791277258422","853.3333333333334","476","arrowright","true","../../test_img/12.png","自我","matching_task","自我","[""<img src=\""../../test_img/19.png\"" width=150 style=\""vertical-align:middle\"">---生人"",""<img src=\""../../test_img/25.png\"" width=150 style=\""vertical-align:middle\"">---朋友"",""<img src=\""../../test_img/12.png\"" width=150 style=\""vertical-align:middle\"">---自我""]","","",""
"","","","","","html-keyboard-response","207","684983","0.0-9.0-0.0-0.0-0.1-1.72","null","<span style='color:GreenYellow; font-size: 70px;'>正确! </span>","null","","","","","","","","","","","","","","","","","","","","","","","","","feedback_test","",""
"","","","","","psychophysics","208","686671","0.0-9.0-0.0-0.0-0.1-0.73","686","","arrowleft","","","","","","","","","","","","","key","arrowleft","6.060431654676426","853.3333333333334","476","arrowleft","true","../../test_img/25.png","自我","matching_task","朋友","[""<img src=\""../../test_img/19.png\"" width=150 style=\""vertical-align:middle\"">---生人"",""<img src=\""../../test_img/25.png\"" width=150 style=\""vertical-align:middle\"">---朋友"",""<img src=\""../../test_img/12.png\"" width=150 style=\""vertical-align:middle\"">---自我""]","","",""
"","","","","","html-keyboard-response","209","687181","0.0-9.0-0.0-0.0-0.1-1.73","null","<span style='color:GreenYellow; font-size: 70px;'>正确! </span>","null","","","","","","","","","","","","","","","","","","","","","","","","","feedback_test","",""
"","","","","","psychophysics","210","689099","0.0-9.0-0.0-0.0-0.1-0.74","913","","arrowleft","","","","","","","","","","","","","key","arrowleft","6.099041533546326","853.3333333333334","476","arrowleft","true","../../test_img/12.png","朋友","matching_task","自我","[""<img src=\""../../test_img/19.png\"" width=150 style=\""vertical-align:middle\"">---生人"",""<img src=\""../../test_img/25.png\"" width=150 style=\""vertical-align:middle\"">---朋友"",""<img src=\""../../test_img/12.png\"" width=150 style=\""vertical-align:middle\"">---自我""]","","",""
"","","","","","html-keyboard-response","211","689609","0.0-9.0-0.0-0.0-0.1-1.74","null","<span style='color:GreenYellow; font-size: 70px;'>正确! </span>","null","","","","","","","","","","","","","","","","","","","","","","","","","feedback_test","",""
"","","","","","psychophysics","212","691274","0.0-9.0-0.0-0.0-0.1-0.75","659","","arrowright","","","","","","","","","","","","","key","arrowright","6.06043956043956","853.3333333333334","476","arrowright","true","../../test_img/19.png","生人","matching_task","生人","[""<img src=\""../../test_img/19.png\"" width=150 style=\""vertical-align:middle\"">---生人"",""<img src=\""../../test_img/25.png\"" width=150 style=\""vertical-align:middle\"">---朋友"",""<img src=\""../../test_img/12.png\"" width=150 style=\""vertical-align:middle\"">---自我""]","","",""
"","","","","","html-keyboard-response","213","691778","0.0-9.0-0.0-0.0-0.1-1.75","null","<span style='color:GreenYellow; font-size: 70px;'>正确! </span>","null","","","","","","","","","","","","","","","","","","","","","","","","","feedback_test","",""
"","","","","","psychophysics","214","693425","0.0-9.0-0.0-0.0-0.1-0.76","647","","arrowright","","","","","","","","","","","","","key","arrowright","6.055925925925839","853.3333333333334","476","arrowright","true","../../test_img/12.png","自我","matching_task","自我","[""<img src=\""../../test_img/19.png\"" width=150 style=\""vertical-align:middle\"">---生人"",""<img src=\""../../test_img/25.png\"" width=150 style=\""vertical-align:middle\"">---朋友"",""<img src=\""../../test_img/12.png\"" width=150 style=\""vertical-align:middle\"">---自我""]","","",""
"","","","","","html-keyboard-response","215","693938","0.0-9.0-0.0-0.0-0.1-1.76","null","<span style='color:GreenYellow; font-size: 70px;'>正确! </span>","null","","","","","","","","","","","","","","","","","","","","","","","","","feedback_test","",""
"","","","","","psychophysics","216","695663","0.0-9.0-0.0-0.0-0.1-0.77","720","","arrowleft","","","","","","","","","","","","","key","arrowleft","6.060424028268469","853.3333333333334","476","arrowleft","true","../../test_img/19.png","朋友","matching_task","生人","[""<img src=\""../../test_img/19.png\"" width=150 style=\""vertical-align:middle\"">---生人"",""<img src=\""../../test_img/25.png\"" width=150 style=\""vertical-align:middle\"">---朋友"",""<img src=\""../../test_img/12.png\"" width=150 style=\""vertical-align:middle\"">---自我""]","","",""
"","","","","","html-keyboard-response","217","696173","0.0-9.0-0.0-0.0-0.1-1.77","null","<span style='color:GreenYellow; font-size: 70px;'>正确! </span>","null","","","","","","","","","","","","","","","","","","","","","","","","","feedback_test","",""
"","","","","","psychophysics","218","698152","0.0-9.0-0.0-0.0-0.1-0.78","974","","arrowleft","","","","","","","","","","","","","key","arrowleft","6.060307692307979","853.3333333333334","476","arrowleft","true","../../test_img/19.png","自我","matching_task","生人","[""<img src=\""../../test_img/19.png\"" width=150 style=\""vertical-align:middle\"">---生人"",""<img src=\""../../test_img/25.png\"" width=150 style=\""vertical-align:middle\"">---朋友"",""<img src=\""../../test_img/12.png\"" width=150 style=\""vertical-align:middle\"">---自我""]","","",""
"","","","","","html-keyboard-response","219","698662","0.0-9.0-0.0-0.0-0.1-1.78","null","<span style='color:GreenYellow; font-size: 70px;'>正确! </span>","null","","","","","","","","","","","","","","","","","","","","","","","","","feedback_test","",""
"","","","","","psychophysics","220","700296","0.0-9.0-0.0-0.0-0.1-0.79","632","","arrowright","","","","","","","","","","","","","key","arrowright","6.060594795538774","853.3333333333334","476","arrowright","true","../../test_img/19.png","生人","matching_task","生人","[""<img src=\""../../test_img/19.png\"" width=150 style=\""vertical-align:middle\"">---生人"",""<img src=\""../../test_img/25.png\"" width=150 style=\""vertical-align:middle\"">---朋友"",""<img src=\""../../test_img/12.png\"" width=150 style=\""vertical-align:middle\"">---自我""]","","",""
"","","","","","html-keyboard-response","221","700801","0.0-9.0-0.0-0.0-0.1-1.79","null","<span style='color:GreenYellow; font-size: 70px;'>正确! </span>","null","","","","","","","","","","","","","","","","","","","","","","","","","feedback_test","",""
"","","","","","psychophysics","222","702393","0.0-9.0-0.0-0.0-0.1-0.80","590","","arrowright","","","","","","","","","","","","","key","arrowright","6.107307692307782","853.3333333333334","476","arrowright","true","../../test_img/25.png","朋友","matching_task","朋友","[""<img src=\""../../test_img/19.png\"" width=150 style=\""vertical-align:middle\"">---生人"",""<img src=\""../../test_img/25.png\"" width=150 style=\""vertical-align:middle\"">---朋友"",""<img src=\""../../test_img/12.png\"" width=150 style=\""vertical-align:middle\"">---自我""]","","",""
"","","","","","html-keyboard-response","223","702904","0.0-9.0-0.0-0.0-0.1-1.80","null","<span style='color:GreenYellow; font-size: 70px;'>正确! </span>","null","","","","","","","","","","","","","","","","","","","","","","","","","feedback_test","",""
"","","","","","psychophysics","224","704781","0.0-9.0-0.0-0.0-0.1-0.81","876","","arrowleft","","","","","","","","","","","","","key","arrowleft","6.059870550161812","853.3333333333334","476","arrowleft","true","../../test_img/12.png","生人","matching_task","自我","[""<img src=\""../../test_img/19.png\"" width=150 style=\""vertical-align:middle\"">---生人"",""<img src=\""../../test_img/25.png\"" width=150 style=\""vertical-align:middle\"">---朋友"",""<img src=\""../../test_img/12.png\"" width=150 style=\""vertical-align:middle\"">---自我""]","","",""
"","","","","","html-keyboard-response","225","705284","0.0-9.0-0.0-0.0-0.1-1.81","null","<span style='color:GreenYellow; font-size: 70px;'>正确! </span>","null","","","","","","","","","","","","","","","","","","","","","","","","","feedback_test","",""
"","","","","","psychophysics","226","707144","0.0-9.0-0.0-0.0-0.1-0.82","857","","arrowleft","","","","","","","","","","","","","key","arrowleft","6.0601307189543245","853.3333333333334","476","arrowleft","true","../../test_img/25.png","生人","matching_task","朋友","[""<img src=\""../../test_img/19.png\"" width=150 style=\""vertical-align:middle\"">---生人"",""<img src=\""../../test_img/25.png\"" width=150 style=\""vertical-align:middle\"">---朋友"",""<img src=\""../../test_img/12.png\"" width=150 style=\""vertical-align:middle\"">---自我""]","","",""
"","","","","","html-keyboard-response","227","707652","0.0-9.0-0.0-0.0-0.1-1.82","null","<span style='color:GreenYellow; font-size: 70px;'>正确! </span>","null","","","","","","","","","","","","","","","","","","","","","","","","","feedback_test","",""
"","","","","","psychophysics","228","709282","0.0-9.0-0.0-0.0-0.1-0.83","625","","arrowright","","","","","","","","","","","","","key","arrowright","6.060447761194291","853.3333333333334","476","arrowright","true","../../test_img/25.png","朋友","matching_task","朋友","[""<img src=\""../../test_img/19.png\"" width=150 style=\""vertical-align:middle\"">---生人"",""<img src=\""../../test_img/25.png\"" width=150 style=\""vertical-align:middle\"">---朋友"",""<img src=\""../../test_img/12.png\"" width=150 style=\""vertical-align:middle\"">---自我""]","","",""
"","","","","","html-keyboard-response","229","709783","0.0-9.0-0.0-0.0-0.1-1.83","null","<span style='color:GreenYellow; font-size: 70px;'>正确! </span>","null","","","","","","","","","","","","","","","","","","","","","","","","","feedback_test","",""
"","","","","","psychophysics","230","711714","0.0-9.0-0.0-0.0-0.1-0.84","928","","arrowleft","","","","","","","","","","","","","key","arrowleft","6.053943217665542","853.3333333333334","476","arrowleft","true","../../test_img/25.png","生人","matching_task","朋友","[""<img src=\""../../test_img/19.png\"" width=150 style=\""vertical-align:middle\"">---生人"",""<img src=\""../../test_img/25.png\"" width=150 style=\""vertical-align:middle\"">---朋友"",""<img src=\""../../test_img/12.png\"" width=150 style=\""vertical-align:middle\"">---自我""]","","",""
"","","","","","html-keyboard-response","231","712227","0.0-9.0-0.0-0.0-0.1-1.84","null","<span style='color:GreenYellow; font-size: 70px;'>正确! </span>","null","","","","","","","","","","","","","","","","","","","","","","","","","feedback_test","",""
"","","","","","psychophysics","232","713994","0.0-9.0-0.0-0.0-0.1-0.85","762","","arrowright","","","","","","","","","","","","","key","arrowright","6.060344827586207","853.3333333333334","476","arrowright","true","../../test_img/19.png","生人","matching_task","生人","[""<img src=\""../../test_img/19.png\"" width=150 style=\""vertical-align:middle\"">---生人"",""<img src=\""../../test_img/25.png\"" width=150 style=\""vertical-align:middle\"">---朋友"",""<img src=\""../../test_img/12.png\"" width=150 style=\""vertical-align:middle\"">---自我""]","","",""
"","","","","","html-keyboard-response","233","714500","0.0-9.0-0.0-0.0-0.1-1.85","null","<span style='color:GreenYellow; font-size: 70px;'>正确! </span>","null","","","","","","","","","","","","","","","","","","","","","","","","","feedback_test","",""
"","","","","","psychophysics","234","716230","0.0-9.0-0.0-0.0-0.1-0.86","725","","arrowleft","","","","","","","","","","","","","key","arrowleft","6.060563380281936","853.3333333333334","476","arrowleft","true","../../test_img/19.png","朋友","matching_task","生人","[""<img src=\""../../test_img/19.png\"" width=150 style=\""vertical-align:middle\"">---生人"",""<img src=\""../../test_img/25.png\"" width=150 style=\""vertical-align:middle\"">---朋友"",""<img src=\""../../test_img/12.png\"" width=150 style=\""vertical-align:middle\"">---自我""]","","",""
"","","","","","html-keyboard-response","235","716740","0.0-9.0-0.0-0.0-0.1-1.86","null","<span style='color:GreenYellow; font-size: 70px;'>正确! </span>","null","","","","","","","","","","","","","","","","","","","","","","","","","feedback_test","",""
"","","","","","psychophysics","236","718283","0.0-9.0-0.0-0.0-0.1-0.87","541","","arrowright","","","","","","","","","","","","","key","arrowright","6.05573122529635","853.3333333333334","476","arrowright","true","../../test_img/25.png","朋友","matching_task","朋友","[""<img src=\""../../test_img/19.png\"" width=150 style=\""vertical-align:middle\"">---生人"",""<img src=\""../../test_img/25.png\"" width=150 style=\""vertical-align:middle\"">---朋友"",""<img src=\""../../test_img/12.png\"" width=150 style=\""vertical-align:middle\"">---自我""]","","",""
"","","","","","html-keyboard-response","237","718798","0.0-9.0-0.0-0.0-0.1-1.87","null","<span style='color:GreenYellow; font-size: 70px;'>正确! </span>","null","","","","","","","","","","","","","","","","","","","","","","","","","feedback_test","",""
"","","","","","psychophysics","238","720664","0.0-9.0-0.0-0.0-0.1-0.88","863","","arrowleft","","","","","","","","","","","","","key","arrowleft","6.0605863192181655","853.3333333333334","476","arrowright","false","../../test_img/19.png","生人","matching_task","生人","[""<img src=\""../../test_img/19.png\"" width=150 style=\""vertical-align:middle\"">---生人"",""<img src=\""../../test_img/25.png\"" width=150 style=\""vertical-align:middle\"">---朋友"",""<img src=\""../../test_img/12.png\"" width=150 style=\""vertical-align:middle\"">---自我""]","","",""
"","","","","","html-keyboard-response","239","721173","0.0-9.0-0.0-0.0-0.1-1.88","null","<span style='color:red; font-size: 70px;'>错误! </span>","null","","","","","","","","","","","","","","","","","","","","","","","","","feedback_test","",""
"","","","","","psychophysics","240","722948","0.0-9.0-0.0-0.0-0.1-0.89","770","","arrowleft","","","","","","","","","","","","","key","arrowleft","6.06027397260266","853.3333333333334","476","arrowleft","true","../../test_img/12.png","生人","matching_task","自我","[""<img src=\""../../test_img/19.png\"" width=150 style=\""vertical-align:middle\"">---生人"",""<img src=\""../../test_img/25.png\"" width=150 style=\""vertical-align:middle\"">---朋友"",""<img src=\""../../test_img/12.png\"" width=150 style=\""vertical-align:middle\"">---自我""]","","",""
"","","","","","html-keyboard-response","241","723459","0.0-9.0-0.0-0.0-0.1-1.89","null","<span style='color:GreenYellow; font-size: 70px;'>正确! </span>","null","","","","","","","","","","","","","","","","","","","","","","","","","feedback_test","",""
"","","","","","psychophysics","242","725242","0.0-9.0-0.0-0.0-0.1-0.90","782","","arrowleft","","","","","","","","","","","","","key","arrowleft","6.060409556313834","853.3333333333334","476","arrowleft","true","../../test_img/19.png","自我","matching_task","生人","[""<img src=\""../../test_img/19.png\"" width=150 style=\""vertical-align:middle\"">---生人"",""<img src=\""../../test_img/25.png\"" width=150 style=\""vertical-align:middle\"">---朋友"",""<img src=\""../../test_img/12.png\"" width=150 style=\""vertical-align:middle\"">---自我""]","","",""
"","","","","","html-keyboard-response","243","725743","0.0-9.0-0.0-0.0-0.1-1.90","null","<span style='color:GreenYellow; font-size: 70px;'>正确! </span>","null","","","","","","","","","","","","","","","","","","","","","","","","","feedback_test","",""
"","","","","","psychophysics","244","727551","0.0-9.0-0.0-0.0-0.1-0.91","804","","arrowright","","","","","","","","","","","","","key","arrowright","6.0602693602690465","853.3333333333334","476","arrowright","true","../../test_img/12.png","自我","matching_task","自我","[""<img src=\""../../test_img/19.png\"" width=150 style=\""vertical-align:middle\"">---生人"",""<img src=\""../../test_img/25.png\"" width=150 style=\""vertical-align:middle\"">---朋友"",""<img src=\""../../test_img/12.png\"" width=150 style=\""vertical-align:middle\"">---自我""]","","",""
"","","","","","html-keyboard-response","245","728063","0.0-9.0-0.0-0.0-0.1-1.91","null","<span style='color:GreenYellow; font-size: 70px;'>正确! </span>","null","","","","","","","","","","","","","","","","","","","","","","","","","feedback_test","",""
"","","","","","psychophysics","246","729767","0.0-9.0-0.0-0.0-0.1-0.92","702","","arrowright","","","","","","","","","","","","","key","arrowright","6.082078853046679","853.3333333333334","476","arrowright","true","../../test_img/12.png","自我","matching_task","自我","[""<img src=\""../../test_img/19.png\"" width=150 style=\""vertical-align:middle\"">---生人"",""<img src=\""../../test_img/25.png\"" width=150 style=\""vertical-align:middle\"">---朋友"",""<img src=\""../../test_img/12.png\"" width=150 style=\""vertical-align:middle\"">---自我""]","","",""
"","","","","","html-keyboard-response","247","730278","0.0-9.0-0.0-0.0-0.1-1.92","null","<span style='color:GreenYellow; font-size: 70px;'>正确! </span>","null","","","","","","","","","","","","","","","","","","","","","","","","","feedback_test","",""
"","","","","","psychophysics","248","731937","0.0-9.0-0.0-0.0-0.1-0.93","657","","arrowright","","","","","","","","","","","","","key","arrowright","6.06043956043956","853.3333333333334","476","arrowright","true","../../test_img/25.png","朋友","matching_task","朋友","[""<img src=\""../../test_img/19.png\"" width=150 style=\""vertical-align:middle\"">---生人"",""<img src=\""../../test_img/25.png\"" width=150 style=\""vertical-align:middle\"">---朋友"",""<img src=\""../../test_img/12.png\"" width=150 style=\""vertical-align:middle\"">---自我""]","","",""
"","","","","","html-keyboard-response","249","732446","0.0-9.0-0.0-0.0-0.1-1.93","null","<span style='color:GreenYellow; font-size: 70px;'>正确! </span>","null","","","","","","","","","","","","","","","","","","","","","","","","","feedback_test","",""
"","","","","","psychophysics","250","734514","0.0-9.0-0.0-0.0-0.1-0.94","1064","","arrowleft","","","","","","","","","","","","","key","arrowleft","6.060294117647059","853.3333333333334","476","arrowleft","true","../../test_img/25.png","自我","matching_task","朋友","[""<img src=\""../../test_img/19.png\"" width=150 style=\""vertical-align:middle\"">---生人"",""<img src=\""../../test_img/25.png\"" width=150 style=\""vertical-align:middle\"">---朋友"",""<img src=\""../../test_img/12.png\"" width=150 style=\""vertical-align:middle\"">---自我""]","","",""
"","","","","","html-keyboard-response","251","735014","0.0-9.0-0.0-0.0-0.1-1.94","null","<span style='color:GreenYellow; font-size: 70px;'>正确! </span>","null","","","","","","","","","","","","","","","","","","","","","","","","","feedback_test","",""
