"success","timeout","failed_images","failed_audio","failed_video","trial_type","trial_index","time_elapsed","internal_node_id","rt","stimulus","response","value","item_width_mm","item_height_mm","item_width_px","px2mm","view_dist_mm","item_width_deg","px2deg","scale_factor","win_width_deg","win_height_deg","view_history","response_type","key_press","avg_frame_time","center_x","center_y","correct_response","correct","Image","word","condition","shape","association","screen_id","LeftLable","RightLable"
"true","false","[]","[]","[]","preload","0","3823","0.0-0.0","","","","","","","","","","","","","","","","","","","","","","","","","","","","","",""
"","","","","","html-keyboard-response","1","9407","0.0-1.0","5578","
     <p>您好，欢迎参加本次实验。</p>
     <p>为充分保障您的权利，请确保您已经知晓并同意《参与实验同意书》以及《数据公开知情同意书》。</p>
     <p>如果您未见过上述内容，请咨询实验员。</p>
     <p>如果您选择继续实验，则表示您已经清楚两份知情同意书的内容并同意。</p>
     <p> <div style = ""color: green""><按任意键至下页></div> </p>
     "," ","","","","","","","","","","","","","","","","","","","","","","","","","","",""
"","","","","","html-keyboard-response","2","10702","0.0-2.0","1293","
     <p>本实验首先需要您填写一些基本个人信息。</p>
     <p> <div style = ""color: green""><按任意键至下页></div></p>
     "," ","","","","","","","","","","","","","","","","","","","","","","","","","","",""
"","","","","","call-function","3","10702","0.0-3.0-0.0","","","","","","","","","","","","","","","","","","","","","","","","","","","","","",""
"","","","","","survey-html-form","4","60723","0.0-3.0-1.0","50020","","{""Q0"":""16""}","","","","","","","","","","","","","","","","","","","","","","","","","","",""
"","","","","","html-button-response","5","62262","0.0-3.0-2.0","1535","<p style = 'color : white'>您的性别</p>","1","","","","","","","","","","","","","","","","","","","","","","","","","","",""
"","","","","","survey-html-form","6","66159","0.0-3.0-3.0","3895","","{""Q0"":""2001""}","","","","","","","","","","","","","","","","","","","","","","","","","","",""
"","","","","","survey-html-form","7","69141","0.0-3.0-4.0","2979","","{""Q0"":""6""}","","","","","","","","","","","","","","","","","","","","","","","","","","",""
"","","","","","virtual-chinrest","8","167961","0.0-4.0","98816","","","","85.6","53.98","461.4978410989652","5.397178141665864","530.22","9.229956821979304","50","0.7670675103420191","25.44","11.88","","","","","","","","","","","","","","","",""
"true","","","","","fullscreen","9","171500","0.0-5.0","","","","","","","","","","","","","","","","","","","","","","","","","","","","","",""
"","","","","","instructions","10","236333","0.0-6.0","64831","","","","","","","","","","","","","","[{""page_index"":0,""viewing_time"":33592},{""page_index"":1,""viewing_time"":7927},{""page_index"":2,""viewing_time"":17182},{""page_index"":3,""viewing_time"":4065},{""page_index"":4,""viewing_time"":2064}]","","","","","","","","","","","","","","",""
"","","","","","psychophysics","11","238858","0.0-7.0-0.0-0.0","null","","null","","","","","","","","","","","","","key","null","16.654333333333295","640","356","arrowright","false","../../test_img/26.png","生人","prac_matching_task","自我","[""<img src=\""../../test_img/22.png\"" width=150 style=\""vertical-align:middle\"">---生人"",""<img src=\""../../test_img/15.png\"" width=150 style=\""vertical-align:middle\"">---朋友"",""<img src=\""../../test_img/26.png\"" width=150 style=\""vertical-align:middle\"">---自我""]","","",""
"","","","","","html-keyboard-response","12","239160","0.0-7.0-0.0-1.0","null","<span class='add_' style='color:yellow; font-size: 70px;'> 太慢! </span>","null","","","","","","","","","","","","","","","","","","","","","","","","","feedback_test","",""
"","","","","","psychophysics","13","240886","0.0-7.0-0.0-0.1","723","","arrowright","","","","","","","","","","","","","key","arrowright","16.660194174757283","640","356","arrowleft","false","../../test_img/26.png","自我","prac_matching_task","自我","[""<img src=\""../../test_img/22.png\"" width=150 style=\""vertical-align:middle\"">---生人"",""<img src=\""../../test_img/15.png\"" width=150 style=\""vertical-align:middle\"">---朋友"",""<img src=\""../../test_img/26.png\"" width=150 style=\""vertical-align:middle\"">---自我""]","","",""
"","","","","","html-keyboard-response","14","241190","0.0-7.0-0.0-1.1","null","<span style='color:red; font-size: 70px;'>错误! </span>","null","","","","","","","","","","","","","","","","","","","","","","","","","feedback_test","",""
"","","","","","psychophysics","15","242970","0.0-7.0-0.0-0.2","775","","arrowleft","","","","","","","","","","","","","key","arrowleft","16.659433962264096","640","356","arrowleft","true","../../test_img/22.png","生人","prac_matching_task","生人","[""<img src=\""../../test_img/22.png\"" width=150 style=\""vertical-align:middle\"">---生人"",""<img src=\""../../test_img/15.png\"" width=150 style=\""vertical-align:middle\"">---朋友"",""<img src=\""../../test_img/26.png\"" width=150 style=\""vertical-align:middle\"">---自我""]","","",""
"","","","","","html-keyboard-response","16","243273","0.0-7.0-0.0-1.2","null","<span style='color:GreenYellow; font-size: 70px;'>正确! </span>","null","","","","","","","","","","","","","","","","","","","","","","","","","feedback_test","",""
"","","","","","psychophysics","17","245468","0.0-7.0-0.0-0.3","1192","","arrowleft","","","","","","","","","","","","","key","arrowleft","16.6610687022899","640","356","arrowleft","true","../../test_img/15.png","朋友","prac_matching_task","朋友","[""<img src=\""../../test_img/22.png\"" width=150 style=\""vertical-align:middle\"">---生人"",""<img src=\""../../test_img/15.png\"" width=150 style=\""vertical-align:middle\"">---朋友"",""<img src=\""../../test_img/26.png\"" width=150 style=\""vertical-align:middle\"">---自我""]","","",""
"","","","","","html-keyboard-response","18","245770","0.0-7.0-0.0-1.3","null","<span style='color:GreenYellow; font-size: 70px;'>正确! </span>","null","","","","","","","","","","","","","","","","","","","","","","","","","feedback_test","",""
"","","","","","psychophysics","19","247680","0.0-7.0-0.0-0.4","906","","arrowright","","","","","","","","","","","","","key","arrowright","16.6610619469025","640","356","arrowright","true","../../test_img/15.png","生人","prac_matching_task","朋友","[""<img src=\""../../test_img/22.png\"" width=150 style=\""vertical-align:middle\"">---生人"",""<img src=\""../../test_img/15.png\"" width=150 style=\""vertical-align:middle\"">---朋友"",""<img src=\""../../test_img/26.png\"" width=150 style=\""vertical-align:middle\"">---自我""]","","",""
"","","","","","html-keyboard-response","20","247984","0.0-7.0-0.0-1.4","null","<span style='color:GreenYellow; font-size: 70px;'>正确! </span>","null","","","","","","","","","","","","","","","","","","","","","","","","","feedback_test","",""
"","","","","","psychophysics","21","250117","0.0-7.0-0.0-0.5","1130","","arrowleft","","","","","","","","","","","","","key","arrowleft","16.65781250000009","640","356","arrowleft","true","../../test_img/22.png","生人","prac_matching_task","生人","[""<img src=\""../../test_img/22.png\"" width=150 style=\""vertical-align:middle\"">---生人"",""<img src=\""../../test_img/15.png\"" width=150 style=\""vertical-align:middle\"">---朋友"",""<img src=\""../../test_img/26.png\"" width=150 style=\""vertical-align:middle\"">---自我""]","","",""
"","","","","","html-keyboard-response","22","250421","0.0-7.0-0.0-1.5","null","<span style='color:GreenYellow; font-size: 70px;'>正确! </span>","null","","","","","","","","","","","","","","","","","","","","","","","","","feedback_test","",""
"","","","","","psychophysics","23","252187","0.0-7.0-0.0-0.6","764","","arrowleft","","","","","","","","","","","","","key","arrowleft","16.65999999999989","640","356","arrowleft","true","../../test_img/26.png","自我","prac_matching_task","自我","[""<img src=\""../../test_img/22.png\"" width=150 style=\""vertical-align:middle\"">---生人"",""<img src=\""../../test_img/15.png\"" width=150 style=\""vertical-align:middle\"">---朋友"",""<img src=\""../../test_img/26.png\"" width=150 style=\""vertical-align:middle\"">---自我""]","","",""
"","","","","","html-keyboard-response","24","252492","0.0-7.0-0.0-1.6","null","<span style='color:GreenYellow; font-size: 70px;'>正确! </span>","null","","","","","","","","","","","","","","","","","","","","","","","","","feedback_test","",""
"","","","","","psychophysics","25","254357","0.0-7.0-0.0-0.7","860","","arrowright","","","","","","","","","","","","","key","arrowright","16.658360360360437","640","356","arrowright","true","../../test_img/22.png","朋友","prac_matching_task","生人","[""<img src=\""../../test_img/22.png\"" width=150 style=\""vertical-align:middle\"">---生人"",""<img src=\""../../test_img/15.png\"" width=150 style=\""vertical-align:middle\"">---朋友"",""<img src=\""../../test_img/26.png\"" width=150 style=\""vertical-align:middle\"">---自我""]","","",""
"","","","","","html-keyboard-response","26","254659","0.0-7.0-0.0-1.7","null","<span style='color:GreenYellow; font-size: 70px;'>正确! </span>","null","","","","","","","","","","","","","","","","","","","","","","","","","feedback_test","",""
"","","","","","psychophysics","27","256874","0.0-7.0-0.0-0.8","1212","","arrowright","","","","","","","","","","","","","key","arrowright","16.65877862595411","640","356","arrowright","true","../../test_img/22.png","自我","prac_matching_task","生人","[""<img src=\""../../test_img/22.png\"" width=150 style=\""vertical-align:middle\"">---生人"",""<img src=\""../../test_img/15.png\"" width=150 style=\""vertical-align:middle\"">---朋友"",""<img src=\""../../test_img/26.png\"" width=150 style=\""vertical-align:middle\"">---自我""]","","",""
"","","","","","html-keyboard-response","28","257177","0.0-7.0-0.0-1.8","null","<span style='color:GreenYellow; font-size: 70px;'>正确! </span>","null","","","","","","","","","","","","","","","","","","","","","","","","","feedback_test","",""
"","","","","","psychophysics","29","259064","0.0-7.0-0.0-0.9","884","","arrowright","","","","","","","","","","","","","key","arrowright","16.659821428571117","640","356","arrowright","true","../../test_img/26.png","朋友","prac_matching_task","自我","[""<img src=\""../../test_img/22.png\"" width=150 style=\""vertical-align:middle\"">---生人"",""<img src=\""../../test_img/15.png\"" width=150 style=\""vertical-align:middle\"">---朋友"",""<img src=\""../../test_img/26.png\"" width=150 style=\""vertical-align:middle\"">---自我""]","","",""
"","","","","","html-keyboard-response","30","259368","0.0-7.0-0.0-1.9","null","<span style='color:GreenYellow; font-size: 70px;'>正确! </span>","null","","","","","","","","","","","","","","","","","","","","","","","","","feedback_test","",""
"","","","","","psychophysics","31","261727","0.0-7.0-0.0-0.10","1355","","arrowright","","","","","","","","","","","","","key","arrowright","16.658865248227116","640","356","arrowright","true","../../test_img/15.png","自我","prac_matching_task","朋友","[""<img src=\""../../test_img/22.png\"" width=150 style=\""vertical-align:middle\"">---生人"",""<img src=\""../../test_img/15.png\"" width=150 style=\""vertical-align:middle\"">---朋友"",""<img src=\""../../test_img/26.png\"" width=150 style=\""vertical-align:middle\"">---自我""]","","",""
"","","","","","html-keyboard-response","32","262030","0.0-7.0-0.0-1.10","null","<span style='color:GreenYellow; font-size: 70px;'>正确! </span>","null","","","","","","","","","","","","","","","","","","","","","","","","","feedback_test","",""
"","","","","","psychophysics","33","264333","0.0-7.0-0.0-0.11","1299","","arrowleft","","","","","","","","","","","","","key","arrowleft","16.661313868612968","640","356","arrowleft","true","../../test_img/15.png","朋友","prac_matching_task","朋友","[""<img src=\""../../test_img/22.png\"" width=150 style=\""vertical-align:middle\"">---生人"",""<img src=\""../../test_img/15.png\"" width=150 style=\""vertical-align:middle\"">---朋友"",""<img src=\""../../test_img/26.png\"" width=150 style=\""vertical-align:middle\"">---自我""]","","",""
"","","","","","html-keyboard-response","34","264636","0.0-7.0-0.0-1.11","null","<span style='color:GreenYellow; font-size: 70px;'>正确! </span>","null","","","","","","","","","","","","","","","","","","","","","","","","","feedback_test","",""
"","","","","","psychophysics","35","266458","0.0-7.0-0.0-0.12","816","","arrowright","","","","","","","","","","","","","key","arrowright","16.660185185185078","640","356","arrowright","true","../../test_img/26.png","朋友","prac_matching_task","自我","[""<img src=\""../../test_img/22.png\"" width=150 style=\""vertical-align:middle\"">---生人"",""<img src=\""../../test_img/15.png\"" width=150 style=\""vertical-align:middle\"">---朋友"",""<img src=\""../../test_img/26.png\"" width=150 style=\""vertical-align:middle\"">---自我""]","","",""
"","","","","","html-keyboard-response","36","266760","0.0-7.0-0.0-1.12","null","<span style='color:GreenYellow; font-size: 70px;'>正确! </span>","null","","","","","","","","","","","","","","","","","","","","","","","","","feedback_test","",""
"","","","","","psychophysics","37","268579","0.0-7.0-0.0-0.13","815","","arrowright","","","","","","","","","","","","","key","arrowright","16.65981308411193","640","356","arrowright","true","../../test_img/22.png","朋友","prac_matching_task","生人","[""<img src=\""../../test_img/22.png\"" width=150 style=\""vertical-align:middle\"">---生人"",""<img src=\""../../test_img/15.png\"" width=150 style=\""vertical-align:middle\"">---朋友"",""<img src=\""../../test_img/26.png\"" width=150 style=\""vertical-align:middle\"">---自我""]","","",""
"","","","","","html-keyboard-response","38","268881","0.0-7.0-0.0-1.13","null","<span style='color:GreenYellow; font-size: 70px;'>正确! </span>","null","","","","","","","","","","","","","","","","","","","","","","","","","feedback_test","",""
"","","","","","psychophysics","39","271306","0.0-7.0-0.0-0.14","1423","","arrowright","","","","","","","","","","","","","key","arrowright","16.658013793103525","640","356","arrowleft","false","../../test_img/22.png","生人","prac_matching_task","生人","[""<img src=\""../../test_img/22.png\"" width=150 style=\""vertical-align:middle\"">---生人"",""<img src=\""../../test_img/15.png\"" width=150 style=\""vertical-align:middle\"">---朋友"",""<img src=\""../../test_img/26.png\"" width=150 style=\""vertical-align:middle\"">---自我""]","","",""
"","","","","","html-keyboard-response","40","271609","0.0-7.0-0.0-1.14","null","<span style='color:red; font-size: 70px;'>错误! </span>","null","","","","","","","","","","","","","","","","","","","","","","","","","feedback_test","",""
"","","","","","psychophysics","41","273457","0.0-7.0-0.0-0.15","845","","arrowright","","","","","","","","","","","","","key","arrowright","16.659999999999787","640","356","arrowleft","false","../../test_img/26.png","自我","prac_matching_task","自我","[""<img src=\""../../test_img/22.png\"" width=150 style=\""vertical-align:middle\"">---生人"",""<img src=\""../../test_img/15.png\"" width=150 style=\""vertical-align:middle\"">---朋友"",""<img src=\""../../test_img/26.png\"" width=150 style=\""vertical-align:middle\"">---自我""]","","",""
"","","","","","html-keyboard-response","42","273760","0.0-7.0-0.0-1.15","null","<span style='color:red; font-size: 70px;'>错误! </span>","null","","","","","","","","","","","","","","","","","","","","","","","","","feedback_test","",""
"","","","","","psychophysics","43","275531","0.0-7.0-0.0-0.16","766","","arrowright","","","","","","","","","","","","","key","arrowright","16.65904761904773","640","356","arrowright","true","../../test_img/15.png","生人","prac_matching_task","朋友","[""<img src=\""../../test_img/22.png\"" width=150 style=\""vertical-align:middle\"">---生人"",""<img src=\""../../test_img/15.png\"" width=150 style=\""vertical-align:middle\"">---朋友"",""<img src=\""../../test_img/26.png\"" width=150 style=\""vertical-align:middle\"">---自我""]","","",""
"","","","","","html-keyboard-response","44","275834","0.0-7.0-0.0-1.16","null","<span style='color:GreenYellow; font-size: 70px;'>正确! </span>","null","","","","","","","","","","","","","","","","","","","","","","","","","feedback_test","",""
"","","","","","psychophysics","45","277869","0.0-7.0-0.0-0.17","1032","","arrowleft","","","","","","","","","","","","","key","arrowleft","16.66033057851211","640","356","arrowleft","true","../../test_img/15.png","朋友","prac_matching_task","朋友","[""<img src=\""../../test_img/22.png\"" width=150 style=\""vertical-align:middle\"">---生人"",""<img src=\""../../test_img/15.png\"" width=150 style=\""vertical-align:middle\"">---朋友"",""<img src=\""../../test_img/26.png\"" width=150 style=\""vertical-align:middle\"">---自我""]","","",""
"","","","","","html-keyboard-response","46","278173","0.0-7.0-0.0-1.17","null","<span style='color:GreenYellow; font-size: 70px;'>正确! </span>","null","","","","","","","","","","","","","","","","","","","","","","","","","feedback_test","",""
"","","","","","psychophysics","47","280028","0.0-7.0-0.0-0.18","852","","arrowleft","","","","","","","","","","","","","key","arrowleft","16.6573818181816","640","356","arrowleft","true","../../test_img/22.png","生人","prac_matching_task","生人","[""<img src=\""../../test_img/22.png\"" width=150 style=\""vertical-align:middle\"">---生人"",""<img src=\""../../test_img/15.png\"" width=150 style=\""vertical-align:middle\"">---朋友"",""<img src=\""../../test_img/26.png\"" width=150 style=\""vertical-align:middle\"">---自我""]","","",""
"","","","","","html-keyboard-response","48","280330","0.0-7.0-0.0-1.18","null","<span style='color:GreenYellow; font-size: 70px;'>正确! </span>","null","","","","","","","","","","","","","","","","","","","","","","","","","feedback_test","",""
"","","","","","psychophysics","49","282152","0.0-7.0-0.0-0.19","818","","arrowright","","","","","","","","","","","","","key","arrowright","16.65925925925937","640","356","arrowright","true","../../test_img/15.png","自我","prac_matching_task","朋友","[""<img src=\""../../test_img/22.png\"" width=150 style=\""vertical-align:middle\"">---生人"",""<img src=\""../../test_img/15.png\"" width=150 style=\""vertical-align:middle\"">---朋友"",""<img src=\""../../test_img/26.png\"" width=150 style=\""vertical-align:middle\"">---自我""]","","",""
"","","","","","html-keyboard-response","50","282455","0.0-7.0-0.0-1.19","null","<span style='color:GreenYellow; font-size: 70px;'>正确! </span>","null","","","","","","","","","","","","","","","","","","","","","","","","","feedback_test","",""
"","","","","","psychophysics","51","284481","0.0-7.0-0.0-0.20","1022","","arrowleft","","","","","","","","","","","","","key","arrowleft","16.658677685950508","640","356","arrowleft","true","../../test_img/15.png","朋友","prac_matching_task","朋友","[""<img src=\""../../test_img/22.png\"" width=150 style=\""vertical-align:middle\"">---生人"",""<img src=\""../../test_img/15.png\"" width=150 style=\""vertical-align:middle\"">---朋友"",""<img src=\""../../test_img/26.png\"" width=150 style=\""vertical-align:middle\"">---自我""]","","",""
"","","","","","html-keyboard-response","52","284783","0.0-7.0-0.0-1.20","null","<span style='color:GreenYellow; font-size: 70px;'>正确! </span>","null","","","","","","","","","","","","","","","","","","","","","","","","","feedback_test","",""
"","","","","","psychophysics","53","287028","0.0-7.0-0.0-0.21","1243","","arrowleft","","","","","","","","","","","","","key","arrowleft","16.65939849624025","640","356","arrowright","false","../../test_img/22.png","自我","prac_matching_task","生人","[""<img src=\""../../test_img/22.png\"" width=150 style=\""vertical-align:middle\"">---生人"",""<img src=\""../../test_img/15.png\"" width=150 style=\""vertical-align:middle\"">---朋友"",""<img src=\""../../test_img/26.png\"" width=150 style=\""vertical-align:middle\"">---自我""]","","",""
"","","","","","html-keyboard-response","54","287332","0.0-7.0-0.0-1.21","null","<span style='color:red; font-size: 70px;'>错误! </span>","null","","","","","","","","","","","","","","","","","","","","","","","","","feedback_test","",""
"","","","","","psychophysics","55","289456","0.0-7.0-0.0-0.22","1122","","arrowright","","","","","","","","","","","","","key","arrowright","16.659523809523623","640","356","arrowright","true","../../test_img/26.png","生人","prac_matching_task","自我","[""<img src=\""../../test_img/22.png\"" width=150 style=\""vertical-align:middle\"">---生人"",""<img src=\""../../test_img/15.png\"" width=150 style=\""vertical-align:middle\"">---朋友"",""<img src=\""../../test_img/26.png\"" width=150 style=\""vertical-align:middle\"">---自我""]","","",""
"","","","","","html-keyboard-response","56","289759","0.0-7.0-0.0-1.22","null","<span style='color:GreenYellow; font-size: 70px;'>正确! </span>","null","","","","","","","","","","","","","","","","","","","","","","","","","feedback_test","",""
"","","","","","psychophysics","57","291621","0.0-7.0-0.0-0.23","858","","arrowright","","","","","","","","","","","","","key","arrowright","16.65909090909091","640","356","arrowleft","false","../../test_img/26.png","自我","prac_matching_task","自我","[""<img src=\""../../test_img/22.png\"" width=150 style=\""vertical-align:middle\"">---生人"",""<img src=\""../../test_img/15.png\"" width=150 style=\""vertical-align:middle\"">---朋友"",""<img src=\""../../test_img/26.png\"" width=150 style=\""vertical-align:middle\"">---自我""]","","",""
"","","","","","html-keyboard-response","58","291924","0.0-7.0-0.0-1.23","null","<span style='color:red; font-size: 70px;'>错误! </span>","null","","","","","","","","","","","","","","","","","","","","","","","","","feedback_test","",""
"","","","","","html-keyboard-response","59","302484","0.0-8.0","10558","<style>.context{color:white; font-size: 35px; line-height:40px}</style>                          <div><p class='context'>您正确回答了75% 的试次。</p ><p class='context'>您的平均反应时为979毫秒。</p ><p class='context'>恭喜您完成练习。按任意键进入知觉匹配任务正式实验。</p ><p style = 'color:lightgreen; font-size: 35px;' >正式实验与练习要求相同，请您尽可能又快又准地进行按键反应</p><p class='footer' style='font-size: 22px; line-height:40px;'>请将您右手的<span style='color: lightgreen;'>食指与无名指</span>放在电脑键盘的相应键位上进行按键。</p >"," ","","","","","","","","","","","","","","","","","","","","","","","","","","",""
"","","","","","psychophysics","60","304528","0.0-9.0-0.0-0.0-0.0-0.0","1039","","arrowright","","","","","","","","","","","","","key","arrowright","16.659016393442815","640","356","arrowright","true","../../test_img/26.png","生人","matching_task","自我","[""<img src=\""../../test_img/22.png\"" width=150 style=\""vertical-align:middle\"">---生人"",""<img src=\""../../test_img/15.png\"" width=150 style=\""vertical-align:middle\"">---朋友"",""<img src=\""../../test_img/26.png\"" width=150 style=\""vertical-align:middle\"">---自我""]","","",""
"","","","","","html-keyboard-response","61","305030","0.0-9.0-0.0-0.0-0.0-1.0","null","<span style='color:GreenYellow; font-size: 70px;'>正确! </span>","null","","","","","","","","","","","","","","","","","","","","","","","","","feedback_test","",""
"","","","","","psychophysics","62","306815","0.0-9.0-0.0-0.0-0.0-0.1","782","","arrowleft","","","","","","","","","","","","","key","arrowleft","16.658490566037624","640","356","arrowleft","true","../../test_img/15.png","朋友","matching_task","朋友","[""<img src=\""../../test_img/22.png\"" width=150 style=\""vertical-align:middle\"">---生人"",""<img src=\""../../test_img/15.png\"" width=150 style=\""vertical-align:middle\"">---朋友"",""<img src=\""../../test_img/26.png\"" width=150 style=\""vertical-align:middle\"">---自我""]","","",""
"","","","","","html-keyboard-response","63","307316","0.0-9.0-0.0-0.0-0.0-1.1","null","<span style='color:GreenYellow; font-size: 70px;'>正确! </span>","null","","","","","","","","","","","","","","","","","","","","","","","","","feedback_test","",""
"","","","","","psychophysics","64","309072","0.0-9.0-0.0-0.0-0.0-0.2","755","","arrowleft","","","","","","","","","","","","","key","arrowleft","16.658095238095015","640","356","arrowleft","true","../../test_img/26.png","自我","matching_task","自我","[""<img src=\""../../test_img/22.png\"" width=150 style=\""vertical-align:middle\"">---生人"",""<img src=\""../../test_img/15.png\"" width=150 style=\""vertical-align:middle\"">---朋友"",""<img src=\""../../test_img/26.png\"" width=150 style=\""vertical-align:middle\"">---自我""]","","",""
"","","","","","html-keyboard-response","65","309574","0.0-9.0-0.0-0.0-0.0-1.2","null","<span style='color:GreenYellow; font-size: 70px;'>正确! </span>","null","","","","","","","","","","","","","","","","","","","","","","","","","feedback_test","",""
"","","","","","psychophysics","66","311711","0.0-9.0-0.0-0.0-0.0-0.3","1134","","arrowright","","","","","","","","","","","","","key","arrowright","16.659842519685405","640","356","arrowright","true","../../test_img/15.png","自我","matching_task","朋友","[""<img src=\""../../test_img/22.png\"" width=150 style=\""vertical-align:middle\"">---生人"",""<img src=\""../../test_img/15.png\"" width=150 style=\""vertical-align:middle\"">---朋友"",""<img src=\""../../test_img/26.png\"" width=150 style=\""vertical-align:middle\"">---自我""]","","",""
"","","","","","html-keyboard-response","67","312213","0.0-9.0-0.0-0.0-0.0-1.3","null","<span style='color:GreenYellow; font-size: 70px;'>正确! </span>","null","","","","","","","","","","","","","","","","","","","","","","","","","feedback_test","",""
"","","","","","psychophysics","68","314309","0.0-9.0-0.0-0.0-0.0-0.4","1093","","arrowleft","","","","","","","","","","","","","key","arrowleft","16.654838709677513","640","356","arrowright","false","../../test_img/15.png","生人","matching_task","朋友","[""<img src=\""../../test_img/22.png\"" width=150 style=\""vertical-align:middle\"">---生人"",""<img src=\""../../test_img/15.png\"" width=150 style=\""vertical-align:middle\"">---朋友"",""<img src=\""../../test_img/26.png\"" width=150 style=\""vertical-align:middle\"">---自我""]","","",""
"","","","","","html-keyboard-response","69","314812","0.0-9.0-0.0-0.0-0.0-1.4","null","<span style='color:red; font-size: 70px;'>错误! </span>","null","","","","","","","","","","","","","","","","","","","","","","","","","feedback_test","",""
"","","","","","psychophysics","70","316658","0.0-9.0-0.0-0.0-0.0-0.5","842","","arrowleft","","","","","","","","","","","","","key","arrowleft","16.657145454545653","640","356","arrowleft","true","../../test_img/22.png","生人","matching_task","生人","[""<img src=\""../../test_img/22.png\"" width=150 style=\""vertical-align:middle\"">---生人"",""<img src=\""../../test_img/15.png\"" width=150 style=\""vertical-align:middle\"">---朋友"",""<img src=\""../../test_img/26.png\"" width=150 style=\""vertical-align:middle\"">---自我""]","","",""
"","","","","","html-keyboard-response","71","317159","0.0-9.0-0.0-0.0-0.0-1.5","null","<span style='color:GreenYellow; font-size: 70px;'>正确! </span>","null","","","","","","","","","","","","","","","","","","","","","","","","","feedback_test","",""
"","","","","","psychophysics","72","319000","0.0-9.0-0.0-0.0-0.0-0.6","837","","arrowright","","","","","","","","","","","","","key","arrowright","16.65739999999959","640","356","arrowright","true","../../test_img/22.png","朋友","matching_task","生人","[""<img src=\""../../test_img/22.png\"" width=150 style=\""vertical-align:middle\"">---生人"",""<img src=\""../../test_img/15.png\"" width=150 style=\""vertical-align:middle\"">---朋友"",""<img src=\""../../test_img/26.png\"" width=150 style=\""vertical-align:middle\"">---自我""]","","",""
"","","","","","html-keyboard-response","73","319504","0.0-9.0-0.0-0.0-0.0-1.6","null","<span style='color:GreenYellow; font-size: 70px;'>正确! </span>","null","","","","","","","","","","","","","","","","","","","","","","","","","feedback_test","",""
"","","","","","psychophysics","74","321461","0.0-9.0-0.0-0.0-0.0-0.7","954","","arrowleft","","","","","","","","","","","","","key","arrowleft","16.65948275862069","640","356","arrowleft","true","../../test_img/26.png","自我","matching_task","自我","[""<img src=\""../../test_img/22.png\"" width=150 style=\""vertical-align:middle\"">---生人"",""<img src=\""../../test_img/15.png\"" width=150 style=\""vertical-align:middle\"">---朋友"",""<img src=\""../../test_img/26.png\"" width=150 style=\""vertical-align:middle\"">---自我""]","","",""
"","","","","","html-keyboard-response","75","321965","0.0-9.0-0.0-0.0-0.0-1.7","null","<span style='color:GreenYellow; font-size: 70px;'>正确! </span>","null","","","","","","","","","","","","","","","","","","","","","","","","","feedback_test","",""
"","","","","","psychophysics","76","324235","0.0-9.0-0.0-0.0-0.0-0.8","1268","","arrowright","","","","","","","","","","","","","key","arrowright","16.660740740740827","640","356","arrowright","true","../../test_img/26.png","朋友","matching_task","自我","[""<img src=\""../../test_img/22.png\"" width=150 style=\""vertical-align:middle\"">---生人"",""<img src=\""../../test_img/15.png\"" width=150 style=\""vertical-align:middle\"">---朋友"",""<img src=\""../../test_img/26.png\"" width=150 style=\""vertical-align:middle\"">---自我""]","","",""
"","","","","","html-keyboard-response","77","324739","0.0-9.0-0.0-0.0-0.0-1.8","null","<span style='color:GreenYellow; font-size: 70px;'>正确! </span>","null","","","","","","","","","","","","","","","","","","","","","","","","","feedback_test","",""
"","","","","","psychophysics","78","326668","0.0-9.0-0.0-0.0-0.0-0.9","926","","arrowright","","","","","","","","","","","","","key","arrowright","16.659999999999695","640","356","arrowleft","false","../../test_img/22.png","生人","matching_task","生人","[""<img src=\""../../test_img/22.png\"" width=150 style=\""vertical-align:middle\"">---生人"",""<img src=\""../../test_img/15.png\"" width=150 style=\""vertical-align:middle\"">---朋友"",""<img src=\""../../test_img/26.png\"" width=150 style=\""vertical-align:middle\"">---自我""]","","",""
"","","","","","html-keyboard-response","79","327170","0.0-9.0-0.0-0.0-0.0-1.9","null","<span style='color:red; font-size: 70px;'>错误! </span>","null","","","","","","","","","","","","","","","","","","","","","","","","","feedback_test","",""
"","","","","","psychophysics","80","329104","0.0-9.0-0.0-0.0-0.0-0.10","930","","arrowright","","","","","","","","","","","","","key","arrowright","16.660000000000203","640","356","arrowright","true","../../test_img/22.png","自我","matching_task","生人","[""<img src=\""../../test_img/22.png\"" width=150 style=\""vertical-align:middle\"">---生人"",""<img src=\""../../test_img/15.png\"" width=150 style=\""vertical-align:middle\"">---朋友"",""<img src=\""../../test_img/26.png\"" width=150 style=\""vertical-align:middle\"">---自我""]","","",""
"","","","","","html-keyboard-response","81","329606","0.0-9.0-0.0-0.0-0.0-1.10","null","<span style='color:GreenYellow; font-size: 70px;'>正确! </span>","null","","","","","","","","","","","","","","","","","","","","","","","","","feedback_test","",""
"","","","","","psychophysics","82","331454","0.0-9.0-0.0-0.0-0.0-0.11","846","","arrowleft","","","","","","","","","","","","","key","arrowleft","16.65137614678899","640","356","arrowleft","true","../../test_img/15.png","朋友","matching_task","朋友","[""<img src=\""../../test_img/22.png\"" width=150 style=\""vertical-align:middle\"">---生人"",""<img src=\""../../test_img/15.png\"" width=150 style=\""vertical-align:middle\"">---朋友"",""<img src=\""../../test_img/26.png\"" width=150 style=\""vertical-align:middle\"">---自我""]","","",""
"","","","","","html-keyboard-response","83","331957","0.0-9.0-0.0-0.0-0.0-1.11","null","<span style='color:GreenYellow; font-size: 70px;'>正确! </span>","null","","","","","","","","","","","","","","","","","","","","","","","","","feedback_test","",""
"","","","","","psychophysics","84","333709","0.0-9.0-0.0-0.0-0.0-0.12","749","","arrowright","","","","","","","","","","","","","key","arrowright","16.65961538461516","640","356","arrowright","true","../../test_img/26.png","生人","matching_task","自我","[""<img src=\""../../test_img/22.png\"" width=150 style=\""vertical-align:middle\"">---生人"",""<img src=\""../../test_img/15.png\"" width=150 style=\""vertical-align:middle\"">---朋友"",""<img src=\""../../test_img/26.png\"" width=150 style=\""vertical-align:middle\"">---自我""]","","",""
"","","","","","html-keyboard-response","85","334210","0.0-9.0-0.0-0.0-0.0-1.12","null","<span style='color:GreenYellow; font-size: 70px;'>正确! </span>","null","","","","","","","","","","","","","","","","","","","","","","","","","feedback_test","",""
"","","","","","psychophysics","86","336294","0.0-9.0-0.0-0.0-0.0-0.13","1080","","arrowleft","","","","","","","","","","","","","key","arrowleft","16.65934959349622","640","356","arrowleft","true","../../test_img/22.png","生人","matching_task","生人","[""<img src=\""../../test_img/22.png\"" width=150 style=\""vertical-align:middle\"">---生人"",""<img src=\""../../test_img/15.png\"" width=150 style=\""vertical-align:middle\"">---朋友"",""<img src=\""../../test_img/26.png\"" width=150 style=\""vertical-align:middle\"">---自我""]","","",""
"","","","","","html-keyboard-response","87","336798","0.0-9.0-0.0-0.0-0.0-1.13","null","<span style='color:GreenYellow; font-size: 70px;'>正确! </span>","null","","","","","","","","","","","","","","","","","","","","","","","","","feedback_test","",""
"","","","","","psychophysics","88","338517","0.0-9.0-0.0-0.0-0.0-0.14","715","","arrowright","","","","","","","","","","","","","key","arrowright","16.659405940593828","640","356","arrowleft","false","../../test_img/26.png","自我","matching_task","自我","[""<img src=\""../../test_img/22.png\"" width=150 style=\""vertical-align:middle\"">---生人"",""<img src=\""../../test_img/15.png\"" width=150 style=\""vertical-align:middle\"">---朋友"",""<img src=\""../../test_img/26.png\"" width=150 style=\""vertical-align:middle\"">---自我""]","","",""
"","","","","","html-keyboard-response","89","339019","0.0-9.0-0.0-0.0-0.0-1.14","null","<span style='color:red; font-size: 70px;'>错误! </span>","null","","","","","","","","","","","","","","","","","","","","","","","","","feedback_test","",""
"","","","","","psychophysics","90","340770","0.0-9.0-0.0-0.0-0.0-0.15","747","","arrowleft","","","","","","","","","","","","","key","arrowleft","16.6592233009711","640","356","arrowleft","true","../../test_img/15.png","朋友","matching_task","朋友","[""<img src=\""../../test_img/22.png\"" width=150 style=\""vertical-align:middle\"">---生人"",""<img src=\""../../test_img/15.png\"" width=150 style=\""vertical-align:middle\"">---朋友"",""<img src=\""../../test_img/26.png\"" width=150 style=\""vertical-align:middle\"">---自我""]","","",""
"","","","","","html-keyboard-response","91","341272","0.0-9.0-0.0-0.0-0.0-1.15","null","<span style='color:GreenYellow; font-size: 70px;'>正确! </span>","null","","","","","","","","","","","","","","","","","","","","","","","","","feedback_test","",""
"","","","","","psychophysics","92","343046","0.0-9.0-0.0-0.0-0.0-0.16","771","","arrowright","","","","","","","","","","","","","key","arrowright","16.65904761904773","640","356","arrowleft","false","../../test_img/15.png","朋友","matching_task","朋友","[""<img src=\""../../test_img/22.png\"" width=150 style=\""vertical-align:middle\"">---生人"",""<img src=\""../../test_img/15.png\"" width=150 style=\""vertical-align:middle\"">---朋友"",""<img src=\""../../test_img/26.png\"" width=150 style=\""vertical-align:middle\"">---自我""]","","",""
"","","","","","html-keyboard-response","93","343548","0.0-9.0-0.0-0.0-0.0-1.16","null","<span style='color:red; font-size: 70px;'>错误! </span>","null","","","","","","","","","","","","","","","","","","","","","","","","","feedback_test","",""
"","","","","","psychophysics","94","345465","0.0-9.0-0.0-0.0-0.0-0.17","912","","arrowright","","","","","","","","","","","","","key","arrowright","16.658771929824358","640","356","arrowright","true","../../test_img/22.png","朋友","matching_task","生人","[""<img src=\""../../test_img/22.png\"" width=150 style=\""vertical-align:middle\"">---生人"",""<img src=\""../../test_img/15.png\"" width=150 style=\""vertical-align:middle\"">---朋友"",""<img src=\""../../test_img/26.png\"" width=150 style=\""vertical-align:middle\"">---自我""]","","",""
"","","","","","html-keyboard-response","95","345966","0.0-9.0-0.0-0.0-0.0-1.17","null","<span style='color:GreenYellow; font-size: 70px;'>正确! </span>","null","","","","","","","","","","","","","","","","","","","","","","","","","feedback_test","",""
"","","","","","psychophysics","96","348077","0.0-9.0-0.0-0.0-0.0-0.18","1108","","arrowright","","","","","","","","","","","","","key","arrowright","16.65887096774203","640","356","arrowright","true","../../test_img/15.png","生人","matching_task","朋友","[""<img src=\""../../test_img/22.png\"" width=150 style=\""vertical-align:middle\"">---生人"",""<img src=\""../../test_img/15.png\"" width=150 style=\""vertical-align:middle\"">---朋友"",""<img src=\""../../test_img/26.png\"" width=150 style=\""vertical-align:middle\"">---自我""]","","",""
"","","","","","html-keyboard-response","97","348579","0.0-9.0-0.0-0.0-0.0-1.18","null","<span style='color:GreenYellow; font-size: 70px;'>正确! </span>","null","","","","","","","","","","","","","","","","","","","","","","","","","feedback_test","",""
"","","","","","psychophysics","98","350759","0.0-9.0-0.0-0.0-0.0-0.19","1178","","arrowright","","","","","","","","","","","","","key","arrowright","16.66000000000036","640","356","arrowright","true","../../test_img/22.png","自我","matching_task","生人","[""<img src=\""../../test_img/22.png\"" width=150 style=\""vertical-align:middle\"">---生人"",""<img src=\""../../test_img/15.png\"" width=150 style=\""vertical-align:middle\"">---朋友"",""<img src=\""../../test_img/26.png\"" width=150 style=\""vertical-align:middle\"">---自我""]","","",""
"","","","","","html-keyboard-response","99","351260","0.0-9.0-0.0-0.0-0.0-1.19","null","<span style='color:GreenYellow; font-size: 70px;'>正确! </span>","null","","","","","","","","","","","","","","","","","","","","","","","","","feedback_test","",""
"","","","","","psychophysics","100","353469","0.0-9.0-0.0-0.0-0.0-0.20","1206","","arrowright","","","","","","","","","","","","","key","arrowright","16.659848484848307","640","356","arrowright","true","../../test_img/15.png","自我","matching_task","朋友","[""<img src=\""../../test_img/22.png\"" width=150 style=\""vertical-align:middle\"">---生人"",""<img src=\""../../test_img/15.png\"" width=150 style=\""vertical-align:middle\"">---朋友"",""<img src=\""../../test_img/26.png\"" width=150 style=\""vertical-align:middle\"">---自我""]","","",""
"","","","","","html-keyboard-response","101","353971","0.0-9.0-0.0-0.0-0.0-1.20","null","<span style='color:GreenYellow; font-size: 70px;'>正确! </span>","null","","","","","","","","","","","","","","","","","","","","","","","","","feedback_test","",""
"","","","","","psychophysics","102","355876","0.0-9.0-0.0-0.0-0.0-0.21","902","","arrowleft","","","","","","","","","","","","","key","arrowleft","16.660176991150237","640","356","arrowleft","true","../../test_img/26.png","自我","matching_task","自我","[""<img src=\""../../test_img/22.png\"" width=150 style=\""vertical-align:middle\"">---生人"",""<img src=\""../../test_img/15.png\"" width=150 style=\""vertical-align:middle\"">---朋友"",""<img src=\""../../test_img/26.png\"" width=150 style=\""vertical-align:middle\"">---自我""]","","",""
"","","","","","html-keyboard-response","103","356380","0.0-9.0-0.0-0.0-0.0-1.21","null","<span style='color:GreenYellow; font-size: 70px;'>正确! </span>","null","","","","","","","","","","","","","","","","","","","","","","","","","feedback_test","",""
"","","","","","psychophysics","104","358075","0.0-9.0-0.0-0.0-0.0-0.22","691","","arrowright","","","","","","","","","","","","","key","arrowright","16.659000000000233","640","356","arrowright","true","../../test_img/26.png","朋友","matching_task","自我","[""<img src=\""../../test_img/22.png\"" width=150 style=\""vertical-align:middle\"">---生人"",""<img src=\""../../test_img/15.png\"" width=150 style=\""vertical-align:middle\"">---朋友"",""<img src=\""../../test_img/26.png\"" width=150 style=\""vertical-align:middle\"">---自我""]","","",""
"","","","","","html-keyboard-response","105","358577","0.0-9.0-0.0-0.0-0.0-1.22","null","<span style='color:GreenYellow; font-size: 70px;'>正确! </span>","null","","","","","","","","","","","","","","","","","","","","","","","","","feedback_test","",""
"","","","","","psychophysics","106","360463","0.0-9.0-0.0-0.0-0.0-0.23","885","","arrowleft","","","","","","","","","","","","","key","arrowleft","16.65929203539823","640","356","arrowleft","true","../../test_img/22.png","生人","matching_task","生人","[""<img src=\""../../test_img/22.png\"" width=150 style=\""vertical-align:middle\"">---生人"",""<img src=\""../../test_img/15.png\"" width=150 style=\""vertical-align:middle\"">---朋友"",""<img src=\""../../test_img/26.png\"" width=150 style=\""vertical-align:middle\"">---自我""]","","",""
"","","","","","html-keyboard-response","107","360965","0.0-9.0-0.0-0.0-0.0-1.23","null","<span style='color:GreenYellow; font-size: 70px;'>正确! </span>","null","","","","","","","","","","","","","","","","","","","","","","","","","feedback_test","",""
"","","","","","psychophysics","108","362697","0.0-9.0-0.0-0.0-0.0-0.24","729","","arrowright","","","","","","","","","","","","","key","arrowright","16.6592233009711","640","356","arrowright","true","../../test_img/26.png","朋友","matching_task","自我","[""<img src=\""../../test_img/22.png\"" width=150 style=\""vertical-align:middle\"">---生人"",""<img src=\""../../test_img/15.png\"" width=150 style=\""vertical-align:middle\"">---朋友"",""<img src=\""../../test_img/26.png\"" width=150 style=\""vertical-align:middle\"">---自我""]","","",""
"","","","","","html-keyboard-response","109","363200","0.0-9.0-0.0-0.0-0.0-1.24","null","<span style='color:GreenYellow; font-size: 70px;'>正确! </span>","null","","","","","","","","","","","","","","","","","","","","","","","","","feedback_test","",""
"","","","","","psychophysics","110","365072","0.0-9.0-0.0-0.0-0.0-0.25","867","","arrowleft","","","","","","","","","","","","","key","arrowleft","16.661261261260947","640","356","arrowleft","true","../../test_img/15.png","朋友","matching_task","朋友","[""<img src=\""../../test_img/22.png\"" width=150 style=\""vertical-align:middle\"">---生人"",""<img src=\""../../test_img/15.png\"" width=150 style=\""vertical-align:middle\"">---朋友"",""<img src=\""../../test_img/26.png\"" width=150 style=\""vertical-align:middle\"">---自我""]","","",""
"","","","","","html-keyboard-response","111","365573","0.0-9.0-0.0-0.0-0.0-1.25","null","<span style='color:GreenYellow; font-size: 70px;'>正确! </span>","null","","","","","","","","","","","","","","","","","","","","","","","","","feedback_test","",""
"","","","","","psychophysics","112","367570","0.0-9.0-0.0-0.0-0.0-0.26","995","","arrowleft","","","","","","","","","","","","","key","arrowleft","16.656470588235255","640","356","arrowleft","true","../../test_img/22.png","生人","matching_task","生人","[""<img src=\""../../test_img/22.png\"" width=150 style=\""vertical-align:middle\"">---生人"",""<img src=\""../../test_img/15.png\"" width=150 style=\""vertical-align:middle\"">---朋友"",""<img src=\""../../test_img/26.png\"" width=150 style=\""vertical-align:middle\"">---自我""]","","",""
"","","","","","html-keyboard-response","113","368072","0.0-9.0-0.0-0.0-0.0-1.26","null","<span style='color:GreenYellow; font-size: 70px;'>正确! </span>","null","","","","","","","","","","","","","","","","","","","","","","","","","feedback_test","",""
"","","","","","psychophysics","114","369878","0.0-9.0-0.0-0.0-0.0-0.27","803","","arrowright","","","","","","","","","","","","","key","arrowright","16.660185185185078","640","356","arrowright","true","../../test_img/22.png","朋友","matching_task","生人","[""<img src=\""../../test_img/22.png\"" width=150 style=\""vertical-align:middle\"">---生人"",""<img src=\""../../test_img/15.png\"" width=150 style=\""vertical-align:middle\"">---朋友"",""<img src=\""../../test_img/26.png\"" width=150 style=\""vertical-align:middle\"">---自我""]","","",""
"","","","","","html-keyboard-response","115","370383","0.0-9.0-0.0-0.0-0.0-1.27","null","<span style='color:GreenYellow; font-size: 70px;'>正确! </span>","null","","","","","","","","","","","","","","","","","","","","","","","","","feedback_test","",""
"","","","","","psychophysics","116","372183","0.0-9.0-0.0-0.0-0.0-0.28","798","","arrowleft","","","","","","","","","","","","","key","arrowleft","16.660747663550968","640","356","arrowleft","true","../../test_img/26.png","自我","matching_task","自我","[""<img src=\""../../test_img/22.png\"" width=150 style=\""vertical-align:middle\"">---生人"",""<img src=\""../../test_img/15.png\"" width=150 style=\""vertical-align:middle\"">---朋友"",""<img src=\""../../test_img/26.png\"" width=150 style=\""vertical-align:middle\"">---自我""]","","",""
"","","","","","html-keyboard-response","117","372686","0.0-9.0-0.0-0.0-0.0-1.28","null","<span style='color:GreenYellow; font-size: 70px;'>正确! </span>","null","","","","","","","","","","","","","","","","","","","","","","","","","feedback_test","",""
"","","","","","psychophysics","118","374509","0.0-9.0-0.0-0.0-0.0-0.29","820","","arrowright","","","","","","","","","","","","","key","arrowright","16.65833333333366","640","356","arrowright","true","../../test_img/26.png","生人","matching_task","自我","[""<img src=\""../../test_img/22.png\"" width=150 style=\""vertical-align:middle\"">---生人"",""<img src=\""../../test_img/15.png\"" width=150 style=\""vertical-align:middle\"">---朋友"",""<img src=\""../../test_img/26.png\"" width=150 style=\""vertical-align:middle\"">---自我""]","","",""
"","","","","","html-keyboard-response","119","375011","0.0-9.0-0.0-0.0-0.0-1.29","null","<span style='color:GreenYellow; font-size: 70px;'>正确! </span>","null","","","","","","","","","","","","","","","","","","","","","","","","","feedback_test","",""
"","","","","","psychophysics","120","376868","0.0-9.0-0.0-0.0-0.0-0.30","854","","arrowleft","","","","","","","","","","","","","key","arrowleft","16.659999999999787","640","356","arrowleft","true","../../test_img/26.png","自我","matching_task","自我","[""<img src=\""../../test_img/22.png\"" width=150 style=\""vertical-align:middle\"">---生人"",""<img src=\""../../test_img/15.png\"" width=150 style=\""vertical-align:middle\"">---朋友"",""<img src=\""../../test_img/26.png\"" width=150 style=\""vertical-align:middle\"">---自我""]","","",""
"","","","","","html-keyboard-response","121","377371","0.0-9.0-0.0-0.0-0.0-1.30","null","<span style='color:GreenYellow; font-size: 70px;'>正确! </span>","null","","","","","","","","","","","","","","","","","","","","","","","","","feedback_test","",""
"","","","","","psychophysics","122","379368","0.0-9.0-0.0-0.0-0.0-0.31","995","","arrowright","","","","","","","","","","","","","key","arrowright","16.659322033898206","640","356","arrowright","true","../../test_img/22.png","自我","matching_task","生人","[""<img src=\""../../test_img/22.png\"" width=150 style=\""vertical-align:middle\"">---生人"",""<img src=\""../../test_img/15.png\"" width=150 style=\""vertical-align:middle\"">---朋友"",""<img src=\""../../test_img/26.png\"" width=150 style=\""vertical-align:middle\"">---自我""]","","",""
"","","","","","html-keyboard-response","123","379871","0.0-9.0-0.0-0.0-0.0-1.31","null","<span style='color:GreenYellow; font-size: 70px;'>正确! </span>","null","","","","","","","","","","","","","","","","","","","","","","","","","feedback_test","",""
"","","","","","psychophysics","124","382029","0.0-9.0-0.0-0.0-0.0-0.32","1154","","arrowleft","","","","","","","","","","","","","key","arrowleft","16.66015625","640","356","arrowleft","true","../../test_img/15.png","朋友","matching_task","朋友","[""<img src=\""../../test_img/22.png\"" width=150 style=\""vertical-align:middle\"">---生人"",""<img src=\""../../test_img/15.png\"" width=150 style=\""vertical-align:middle\"">---朋友"",""<img src=\""../../test_img/26.png\"" width=150 style=\""vertical-align:middle\"">---自我""]","","",""
"","","","","","html-keyboard-response","125","382530","0.0-9.0-0.0-0.0-0.0-1.32","null","<span style='color:GreenYellow; font-size: 70px;'>正确! </span>","null","","","","","","","","","","","","","","","","","","","","","","","","","feedback_test","",""
"","","","","","psychophysics","126","384332","0.0-9.0-0.0-0.0-0.0-0.33","798","","arrowright","","","","","","","","","","","","","key","arrowright","16.65626168224273","640","356","arrowright","true","../../test_img/15.png","生人","matching_task","朋友","[""<img src=\""../../test_img/22.png\"" width=150 style=\""vertical-align:middle\"">---生人"",""<img src=\""../../test_img/15.png\"" width=150 style=\""vertical-align:middle\"">---朋友"",""<img src=\""../../test_img/26.png\"" width=150 style=\""vertical-align:middle\"">---自我""]","","",""
"","","","","","html-keyboard-response","127","384834","0.0-9.0-0.0-0.0-0.0-1.33","null","<span style='color:GreenYellow; font-size: 70px;'>正确! </span>","null","","","","","","","","","","","","","","","","","","","","","","","","","feedback_test","",""
"","","","","","psychophysics","128","386833","0.0-9.0-0.0-0.0-0.0-0.34","997","","arrowleft","","","","","","","","","","","","","key","arrowleft","16.6593220338987","640","356","arrowleft","true","../../test_img/22.png","生人","matching_task","生人","[""<img src=\""../../test_img/22.png\"" width=150 style=\""vertical-align:middle\"">---生人"",""<img src=\""../../test_img/15.png\"" width=150 style=\""vertical-align:middle\"">---朋友"",""<img src=\""../../test_img/26.png\"" width=150 style=\""vertical-align:middle\"">---自我""]","","",""
"","","","","","html-keyboard-response","129","387335","0.0-9.0-0.0-0.0-0.0-1.34","null","<span style='color:GreenYellow; font-size: 70px;'>正确! </span>","null","","","","","","","","","","","","","","","","","","","","","","","","","feedback_test","",""
"","","","","","psychophysics","130","389106","0.0-9.0-0.0-0.0-0.0-0.35","767","","arrowright","","","","","","","","","","","","","key","arrowright","16.660952380952047","640","356","arrowright","true","../../test_img/15.png","自我","matching_task","朋友","[""<img src=\""../../test_img/22.png\"" width=150 style=\""vertical-align:middle\"">---生人"",""<img src=\""../../test_img/15.png\"" width=150 style=\""vertical-align:middle\"">---朋友"",""<img src=\""../../test_img/26.png\"" width=150 style=\""vertical-align:middle\"">---自我""]","","",""
"","","","","","html-keyboard-response","131","389608","0.0-9.0-0.0-0.0-0.0-1.35","null","<span style='color:GreenYellow; font-size: 70px;'>正确! </span>","null","","","","","","","","","","","","","","","","","","","","","","","","","feedback_test","",""
"","","","","","psychophysics","132","391612","0.0-9.0-0.0-0.0-0.0-0.36","1003","","arrowright","","","","","","","","","","","","","key","arrowright","16.61983333333337","640","356","arrowright","true","../../test_img/26.png","朋友","matching_task","自我","[""<img src=\""../../test_img/22.png\"" width=150 style=\""vertical-align:middle\"">---生人"",""<img src=\""../../test_img/15.png\"" width=150 style=\""vertical-align:middle\"">---朋友"",""<img src=\""../../test_img/26.png\"" width=150 style=\""vertical-align:middle\"">---自我""]","","",""
"","","","","","html-keyboard-response","133","392114","0.0-9.0-0.0-0.0-0.0-1.36","null","<span style='color:GreenYellow; font-size: 70px;'>正确! </span>","null","","","","","","","","","","","","","","","","","","","","","","","","","feedback_test","",""
"","","","","","psychophysics","134","394030","0.0-9.0-0.0-0.0-0.0-0.37","914","","arrowleft","","","","","","","","","","","","","key","arrowleft","16.65877192982487","640","356","arrowright","false","../../test_img/22.png","自我","matching_task","生人","[""<img src=\""../../test_img/22.png\"" width=150 style=\""vertical-align:middle\"">---生人"",""<img src=\""../../test_img/15.png\"" width=150 style=\""vertical-align:middle\"">---朋友"",""<img src=\""../../test_img/26.png\"" width=150 style=\""vertical-align:middle\"">---自我""]","","",""
"","","","","","html-keyboard-response","135","394532","0.0-9.0-0.0-0.0-0.0-1.37","null","<span style='color:red; font-size: 70px;'>错误! </span>","null","","","","","","","","","","","","","","","","","","","","","","","","","feedback_test","",""
"","","","","","psychophysics","136","396496","0.0-9.0-0.0-0.0-0.0-0.38","960","","arrowleft","","","","","","","","","","","","","key","arrowleft","16.658620689655372","640","356","arrowleft","true","../../test_img/26.png","自我","matching_task","自我","[""<img src=\""../../test_img/22.png\"" width=150 style=\""vertical-align:middle\"">---生人"",""<img src=\""../../test_img/15.png\"" width=150 style=\""vertical-align:middle\"">---朋友"",""<img src=\""../../test_img/26.png\"" width=150 style=\""vertical-align:middle\"">---自我""]","","",""
"","","","","","html-keyboard-response","137","397001","0.0-9.0-0.0-0.0-0.0-1.38","null","<span style='color:GreenYellow; font-size: 70px;'>正确! </span>","null","","","","","","","","","","","","","","","","","","","","","","","","","feedback_test","",""
"","","","","","psychophysics","138","398890","0.0-9.0-0.0-0.0-0.0-0.39","885","","arrowleft","","","","","","","","","","","","","key","arrowleft","16.659821428571117","640","356","arrowleft","true","../../test_img/22.png","生人","matching_task","生人","[""<img src=\""../../test_img/22.png\"" width=150 style=\""vertical-align:middle\"">---生人"",""<img src=\""../../test_img/15.png\"" width=150 style=\""vertical-align:middle\"">---朋友"",""<img src=\""../../test_img/26.png\"" width=150 style=\""vertical-align:middle\"">---自我""]","","",""
"","","","","","html-keyboard-response","139","399391","0.0-9.0-0.0-0.0-0.0-1.39","null","<span style='color:GreenYellow; font-size: 70px;'>正确! </span>","null","","","","","","","","","","","","","","","","","","","","","","","","","feedback_test","",""
"","","","","","psychophysics","140","401192","0.0-9.0-0.0-0.0-0.0-0.40","799","","arrowright","","","","","","","","","","","","","key","arrowright","16.664150943396447","640","356","arrowright","true","../../test_img/22.png","朋友","matching_task","生人","[""<img src=\""../../test_img/22.png\"" width=150 style=\""vertical-align:middle\"">---生人"",""<img src=\""../../test_img/15.png\"" width=150 style=\""vertical-align:middle\"">---朋友"",""<img src=\""../../test_img/26.png\"" width=150 style=\""vertical-align:middle\"">---自我""]","","",""
"","","","","","html-keyboard-response","141","401695","0.0-9.0-0.0-0.0-0.0-1.40","null","<span style='color:GreenYellow; font-size: 70px;'>正确! </span>","null","","","","","","","","","","","","","","","","","","","","","","","","","feedback_test","",""
"","","","","","psychophysics","142","403605","0.0-9.0-0.0-0.0-0.0-0.41","909","","arrowleft","","","","","","","","","","","","","key","arrowleft","16.660176991150752","640","356","arrowleft","true","../../test_img/15.png","朋友","matching_task","朋友","[""<img src=\""../../test_img/22.png\"" width=150 style=\""vertical-align:middle\"">---生人"",""<img src=\""../../test_img/15.png\"" width=150 style=\""vertical-align:middle\"">---朋友"",""<img src=\""../../test_img/26.png\"" width=150 style=\""vertical-align:middle\"">---自我""]","","",""
"","","","","","html-keyboard-response","143","404108","0.0-9.0-0.0-0.0-0.0-1.41","null","<span style='color:GreenYellow; font-size: 70px;'>正确! </span>","null","","","","","","","","","","","","","","","","","","","","","","","","","feedback_test","",""
"","","","","","psychophysics","144","405928","0.0-9.0-0.0-0.0-0.0-0.42","817","","arrowright","","","","","","","","","","","","","key","arrowright","16.65925925925937","640","356","arrowright","true","../../test_img/15.png","自我","matching_task","朋友","[""<img src=\""../../test_img/22.png\"" width=150 style=\""vertical-align:middle\"">---生人"",""<img src=\""../../test_img/15.png\"" width=150 style=\""vertical-align:middle\"">---朋友"",""<img src=\""../../test_img/26.png\"" width=150 style=\""vertical-align:middle\"">---自我""]","","",""
"","","","","","html-keyboard-response","145","406430","0.0-9.0-0.0-0.0-0.0-1.42","null","<span style='color:GreenYellow; font-size: 70px;'>正确! </span>","null","","","","","","","","","","","","","","","","","","","","","","","","","feedback_test","",""
"","","","","","psychophysics","146","408441","0.0-9.0-0.0-0.0-0.0-0.43","1008","","arrowright","","","","","","","","","","","","","key","arrowright","16.65882352941196","640","356","arrowright","true","../../test_img/26.png","生人","matching_task","自我","[""<img src=\""../../test_img/22.png\"" width=150 style=\""vertical-align:middle\"">---生人"",""<img src=\""../../test_img/15.png\"" width=150 style=\""vertical-align:middle\"">---朋友"",""<img src=\""../../test_img/26.png\"" width=150 style=\""vertical-align:middle\"">---自我""]","","",""
"","","","","","html-keyboard-response","147","408945","0.0-9.0-0.0-0.0-0.0-1.43","null","<span style='color:GreenYellow; font-size: 70px;'>正确! </span>","null","","","","","","","","","","","","","","","","","","","","","","","","","feedback_test","",""
"","","","","","psychophysics","148","410824","0.0-9.0-0.0-0.0-0.0-0.44","878","","arrowleft","","","","","","","","","","","","","key","arrowleft","16.65892857142847","640","356","arrowleft","true","../../test_img/26.png","自我","matching_task","自我","[""<img src=\""../../test_img/22.png\"" width=150 style=\""vertical-align:middle\"">---生人"",""<img src=\""../../test_img/15.png\"" width=150 style=\""vertical-align:middle\"">---朋友"",""<img src=\""../../test_img/26.png\"" width=150 style=\""vertical-align:middle\"">---自我""]","","",""
"","","","","","html-keyboard-response","149","411326","0.0-9.0-0.0-0.0-0.0-1.44","null","<span style='color:GreenYellow; font-size: 70px;'>正确! </span>","null","","","","","","","","","","","","","","","","","","","","","","","","","feedback_test","",""
"","","","","","psychophysics","150","413079","0.0-9.0-0.0-0.0-0.0-0.45","747","","arrowright","","","","","","","","","","","","","key","arrowright","16.657475728155635","640","356","arrowright","true","../../test_img/15.png","生人","matching_task","朋友","[""<img src=\""../../test_img/22.png\"" width=150 style=\""vertical-align:middle\"">---生人"",""<img src=\""../../test_img/15.png\"" width=150 style=\""vertical-align:middle\"">---朋友"",""<img src=\""../../test_img/26.png\"" width=150 style=\""vertical-align:middle\"">---自我""]","","",""
"","","","","","html-keyboard-response","151","413581","0.0-9.0-0.0-0.0-0.0-1.45","null","<span style='color:GreenYellow; font-size: 70px;'>正确! </span>","null","","","","","","","","","","","","","","","","","","","","","","","","","feedback_test","",""
"","","","","","psychophysics","152","415410","0.0-9.0-0.0-0.0-0.0-0.46","826","","arrowleft","","","","","","","","","","","","","key","arrowleft","16.65963302752315","640","356","arrowleft","true","../../test_img/15.png","朋友","matching_task","朋友","[""<img src=\""../../test_img/22.png\"" width=150 style=\""vertical-align:middle\"">---生人"",""<img src=\""../../test_img/15.png\"" width=150 style=\""vertical-align:middle\"">---朋友"",""<img src=\""../../test_img/26.png\"" width=150 style=\""vertical-align:middle\"">---自我""]","","",""
"","","","","","html-keyboard-response","153","415913","0.0-9.0-0.0-0.0-0.0-1.46","null","<span style='color:GreenYellow; font-size: 70px;'>正确! </span>","null","","","","","","","","","","","","","","","","","","","","","","","","","feedback_test","",""
"","","","","","psychophysics","154","417704","0.0-9.0-0.0-0.0-0.0-0.47","790","","arrowleft","","","","","","","","","","","","","key","arrowleft","16.65981308411193","640","356","arrowleft","true","../../test_img/22.png","生人","matching_task","生人","[""<img src=\""../../test_img/22.png\"" width=150 style=\""vertical-align:middle\"">---生人"",""<img src=\""../../test_img/15.png\"" width=150 style=\""vertical-align:middle\"">---朋友"",""<img src=\""../../test_img/26.png\"" width=150 style=\""vertical-align:middle\"">---自我""]","","",""
"","","","","","html-keyboard-response","155","418206","0.0-9.0-0.0-0.0-0.0-1.47","null","<span style='color:GreenYellow; font-size: 70px;'>正确! </span>","null","","","","","","","","","","","","","","","","","","","","","","","","","feedback_test","",""
"","","","","","psychophysics","156","420047","0.0-9.0-0.0-0.0-0.0-0.48","838","","arrowright","","","","","","","","","","","","","key","arrowright","16.659633027522617","640","356","arrowright","true","../../test_img/26.png","生人","matching_task","自我","[""<img src=\""../../test_img/22.png\"" width=150 style=\""vertical-align:middle\"">---生人"",""<img src=\""../../test_img/15.png\"" width=150 style=\""vertical-align:middle\"">---朋友"",""<img src=\""../../test_img/26.png\"" width=150 style=\""vertical-align:middle\"">---自我""]","","",""
"","","","","","html-keyboard-response","157","420550","0.0-9.0-0.0-0.0-0.0-1.48","null","<span style='color:GreenYellow; font-size: 70px;'>正确! </span>","null","","","","","","","","","","","","","","","","","","","","","","","","","feedback_test","",""
"","","","","","psychophysics","158","422307","0.0-9.0-0.0-0.0-0.0-0.49","755","","arrowleft","","","","","","","","","","","","","key","arrowleft","16.653846153846153","640","356","arrowleft","true","../../test_img/26.png","自我","matching_task","自我","[""<img src=\""../../test_img/22.png\"" width=150 style=\""vertical-align:middle\"">---生人"",""<img src=\""../../test_img/15.png\"" width=150 style=\""vertical-align:middle\"">---朋友"",""<img src=\""../../test_img/26.png\"" width=150 style=\""vertical-align:middle\"">---自我""]","","",""
"","","","","","html-keyboard-response","159","422809","0.0-9.0-0.0-0.0-0.0-1.49","null","<span style='color:GreenYellow; font-size: 70px;'>正确! </span>","null","","","","","","","","","","","","","","","","","","","","","","","","","feedback_test","",""
"","","","","","psychophysics","160","424559","0.0-9.0-0.0-0.0-0.0-0.50","748","","arrowright","","","","","","","","","","","","","key","arrowright","16.65961538461516","640","356","arrowright","true","../../test_img/15.png","生人","matching_task","朋友","[""<img src=\""../../test_img/22.png\"" width=150 style=\""vertical-align:middle\"">---生人"",""<img src=\""../../test_img/15.png\"" width=150 style=\""vertical-align:middle\"">---朋友"",""<img src=\""../../test_img/26.png\"" width=150 style=\""vertical-align:middle\"">---自我""]","","",""
"","","","","","html-keyboard-response","161","425062","0.0-9.0-0.0-0.0-0.0-1.50","null","<span style='color:GreenYellow; font-size: 70px;'>正确! </span>","null","","","","","","","","","","","","","","","","","","","","","","","","","feedback_test","",""
"","","","","","psychophysics","162","427127","0.0-9.0-0.0-0.0-0.0-0.51","1060","","arrowright","","","","","","","","","","","","","key","arrowright","16.650000000000382","640","356","arrowright","true","../../test_img/22.png","自我","matching_task","生人","[""<img src=\""../../test_img/22.png\"" width=150 style=\""vertical-align:middle\"">---生人"",""<img src=\""../../test_img/15.png\"" width=150 style=\""vertical-align:middle\"">---朋友"",""<img src=\""../../test_img/26.png\"" width=150 style=\""vertical-align:middle\"">---自我""]","","",""
"","","","","","html-keyboard-response","163","427630","0.0-9.0-0.0-0.0-0.0-1.51","null","<span style='color:GreenYellow; font-size: 70px;'>正确! </span>","null","","","","","","","","","","","","","","","","","","","","","","","","","feedback_test","",""
"","","","","","psychophysics","164","429429","0.0-9.0-0.0-0.0-0.0-0.52","796","","arrowleft","","","","","","","","","","","","","key","arrowleft","16.64811320754728","640","356","arrowleft","true","../../test_img/22.png","生人","matching_task","生人","[""<img src=\""../../test_img/22.png\"" width=150 style=\""vertical-align:middle\"">---生人"",""<img src=\""../../test_img/15.png\"" width=150 style=\""vertical-align:middle\"">---朋友"",""<img src=\""../../test_img/26.png\"" width=150 style=\""vertical-align:middle\"">---自我""]","","",""
"","","","","","html-keyboard-response","165","429933","0.0-9.0-0.0-0.0-0.0-1.52","null","<span style='color:GreenYellow; font-size: 70px;'>正确! </span>","null","","","","","","","","","","","","","","","","","","","","","","","","","feedback_test","",""
"","","","","","psychophysics","166","431780","0.0-9.0-0.0-0.0-0.0-0.53","845","","arrowleft","","","","","","","","","","","","","key","arrowleft","16.659999999999787","640","356","arrowleft","true","../../test_img/26.png","自我","matching_task","自我","[""<img src=\""../../test_img/22.png\"" width=150 style=\""vertical-align:middle\"">---生人"",""<img src=\""../../test_img/15.png\"" width=150 style=\""vertical-align:middle\"">---朋友"",""<img src=\""../../test_img/26.png\"" width=150 style=\""vertical-align:middle\"">---自我""]","","",""
"","","","","","html-keyboard-response","167","432282","0.0-9.0-0.0-0.0-0.0-1.53","null","<span style='color:GreenYellow; font-size: 70px;'>正确! </span>","null","","","","","","","","","","","","","","","","","","","","","","","","","feedback_test","",""
"","","","","","psychophysics","168","434210","0.0-9.0-0.0-0.0-0.0-0.54","924","","arrowright","","","","","","","","","","","","","key","arrowright","16.65964912280712","640","356","arrowright","true","../../test_img/22.png","朋友","matching_task","生人","[""<img src=\""../../test_img/22.png\"" width=150 style=\""vertical-align:middle\"">---生人"",""<img src=\""../../test_img/15.png\"" width=150 style=\""vertical-align:middle\"">---朋友"",""<img src=\""../../test_img/26.png\"" width=150 style=\""vertical-align:middle\"">---自我""]","","",""
"","","","","","html-keyboard-response","169","434715","0.0-9.0-0.0-0.0-0.0-1.54","null","<span style='color:GreenYellow; font-size: 70px;'>正确! </span>","null","","","","","","","","","","","","","","","","","","","","","","","","","feedback_test","",""
"","","","","","psychophysics","170","436450","0.0-9.0-0.0-0.0-0.0-0.55","730","","arrowright","","","","","","","","","","","","","key","arrowright","16.660194174757283","640","356","arrowleft","false","../../test_img/22.png","生人","matching_task","生人","[""<img src=\""../../test_img/22.png\"" width=150 style=\""vertical-align:middle\"">---生人"",""<img src=\""../../test_img/15.png\"" width=150 style=\""vertical-align:middle\"">---朋友"",""<img src=\""../../test_img/26.png\"" width=150 style=\""vertical-align:middle\"">---自我""]","","",""
"","","","","","html-keyboard-response","171","436952","0.0-9.0-0.0-0.0-0.0-1.55","null","<span style='color:red; font-size: 70px;'>错误! </span>","null","","","","","","","","","","","","","","","","","","","","","","","","","feedback_test","",""
"","","","","","psychophysics","172","438782","0.0-9.0-0.0-0.0-0.0-0.56","826","","arrowright","","","","","","","","","","","","","key","arrowright","16.660185185185078","640","356","arrowleft","false","../../test_img/15.png","朋友","matching_task","朋友","[""<img src=\""../../test_img/22.png\"" width=150 style=\""vertical-align:middle\"">---生人"",""<img src=\""../../test_img/15.png\"" width=150 style=\""vertical-align:middle\"">---朋友"",""<img src=\""../../test_img/26.png\"" width=150 style=\""vertical-align:middle\"">---自我""]","","",""
"","","","","","html-keyboard-response","173","439284","0.0-9.0-0.0-0.0-0.0-1.56","null","<span style='color:red; font-size: 70px;'>错误! </span>","null","","","","","","","","","","","","","","","","","","","","","","","","","feedback_test","",""
"","","","","","psychophysics","174","441350","0.0-9.0-0.0-0.0-0.0-0.57","1063","","arrowright","","","","","","","","","","","","","key","arrowright","16.65934959349622","640","356","arrowright","true","../../test_img/15.png","自我","matching_task","朋友","[""<img src=\""../../test_img/22.png\"" width=150 style=\""vertical-align:middle\"">---生人"",""<img src=\""../../test_img/15.png\"" width=150 style=\""vertical-align:middle\"">---朋友"",""<img src=\""../../test_img/26.png\"" width=150 style=\""vertical-align:middle\"">---自我""]","","",""
"","","","","","html-keyboard-response","175","441852","0.0-9.0-0.0-0.0-0.0-1.57","null","<span style='color:GreenYellow; font-size: 70px;'>正确! </span>","null","","","","","","","","","","","","","","","","","","","","","","","","","feedback_test","",""
"","","","","","psychophysics","176","443661","0.0-9.0-0.0-0.0-0.0-0.58","805","","arrowleft","","","","","","","","","","","","","key","arrowleft","16.660185185185615","640","356","arrowleft","true","../../test_img/15.png","朋友","matching_task","朋友","[""<img src=\""../../test_img/22.png\"" width=150 style=\""vertical-align:middle\"">---生人"",""<img src=\""../../test_img/15.png\"" width=150 style=\""vertical-align:middle\"">---朋友"",""<img src=\""../../test_img/26.png\"" width=150 style=\""vertical-align:middle\"">---自我""]","","",""
"","","","","","html-keyboard-response","177","444162","0.0-9.0-0.0-0.0-0.0-1.58","null","<span style='color:GreenYellow; font-size: 70px;'>正确! </span>","null","","","","","","","","","","","","","","","","","","","","","","","","","feedback_test","",""
"","","","","","psychophysics","178","446000","0.0-9.0-0.0-0.0-0.0-0.59","835","","arrowright","","","","","","","","","","","","","key","arrowright","16.656236363636246","640","356","arrowright","true","../../test_img/26.png","朋友","matching_task","自我","[""<img src=\""../../test_img/22.png\"" width=150 style=\""vertical-align:middle\"">---生人"",""<img src=\""../../test_img/15.png\"" width=150 style=\""vertical-align:middle\"">---朋友"",""<img src=\""../../test_img/26.png\"" width=150 style=\""vertical-align:middle\"">---自我""]","","",""
"","","","","","html-keyboard-response","179","446503","0.0-9.0-0.0-0.0-0.0-1.59","null","<span style='color:GreenYellow; font-size: 70px;'>正确! </span>","null","","","","","","","","","","","","","","","","","","","","","","","","","feedback_test","",""
"","","","","","psychophysics","180","448797","0.0-9.0-0.0-0.0-0.0-0.60","1290","","arrowleft","","","","","","","","","","","","","key","arrowleft","16.6602941176474","640","356","arrowleft","true","../../test_img/22.png","生人","matching_task","生人","[""<img src=\""../../test_img/22.png\"" width=150 style=\""vertical-align:middle\"">---生人"",""<img src=\""../../test_img/15.png\"" width=150 style=\""vertical-align:middle\"">---朋友"",""<img src=\""../../test_img/26.png\"" width=150 style=\""vertical-align:middle\"">---自我""]","","",""
"","","","","","html-keyboard-response","181","449299","0.0-9.0-0.0-0.0-0.0-1.60","null","<span style='color:GreenYellow; font-size: 70px;'>正确! </span>","null","","","","","","","","","","","","","","","","","","","","","","","","","feedback_test","",""
"","","","","","psychophysics","182","451065","0.0-9.0-0.0-0.0-0.0-0.61","762","","arrowright","","","","","","","","","","","","","key","arrowright","16.656685714285622","640","356","arrowright","true","../../test_img/15.png","生人","matching_task","朋友","[""<img src=\""../../test_img/22.png\"" width=150 style=\""vertical-align:middle\"">---生人"",""<img src=\""../../test_img/15.png\"" width=150 style=\""vertical-align:middle\"">---朋友"",""<img src=\""../../test_img/26.png\"" width=150 style=\""vertical-align:middle\"">---自我""]","","",""
"","","","","","html-keyboard-response","183","451569","0.0-9.0-0.0-0.0-0.0-1.61","null","<span style='color:GreenYellow; font-size: 70px;'>正确! </span>","null","","","","","","","","","","","","","","","","","","","","","","","","","feedback_test","",""
"","","","","","psychophysics","184","453624","0.0-9.0-0.0-0.0-0.0-0.62","1053","","arrowleft","","","","","","","","","","","","","key","arrowleft","16.659016393442815","640","356","arrowleft","true","../../test_img/22.png","生人","matching_task","生人","[""<img src=\""../../test_img/22.png\"" width=150 style=\""vertical-align:middle\"">---生人"",""<img src=\""../../test_img/15.png\"" width=150 style=\""vertical-align:middle\"">---朋友"",""<img src=\""../../test_img/26.png\"" width=150 style=\""vertical-align:middle\"">---自我""]","","",""
"","","","","","html-keyboard-response","185","454126","0.0-9.0-0.0-0.0-0.0-1.62","null","<span style='color:GreenYellow; font-size: 70px;'>正确! </span>","null","","","","","","","","","","","","","","","","","","","","","","","","","feedback_test","",""
"","","","","","psychophysics","186","456120","0.0-9.0-0.0-0.0-0.0-0.63","991","","arrowright","","","","","","","","","","","","","key","arrowright","16.65882352941147","640","356","arrowright","true","../../test_img/15.png","自我","matching_task","朋友","[""<img src=\""../../test_img/22.png\"" width=150 style=\""vertical-align:middle\"">---生人"",""<img src=\""../../test_img/15.png\"" width=150 style=\""vertical-align:middle\"">---朋友"",""<img src=\""../../test_img/26.png\"" width=150 style=\""vertical-align:middle\"">---自我""]","","",""
"","","","","","html-keyboard-response","187","456622","0.0-9.0-0.0-0.0-0.0-1.63","null","<span style='color:GreenYellow; font-size: 70px;'>正确! </span>","null","","","","","","","","","","","","","","","","","","","","","","","","","feedback_test","",""
"","","","","","psychophysics","188","458748","0.0-9.0-0.0-0.0-0.0-0.64","1121","","arrowright","","","","","","","","","","","","","key","arrowright","16.660317460317554","640","356","arrowright","true","../../test_img/26.png","生人","matching_task","自我","[""<img src=\""../../test_img/22.png\"" width=150 style=\""vertical-align:middle\"">---生人"",""<img src=\""../../test_img/15.png\"" width=150 style=\""vertical-align:middle\"">---朋友"",""<img src=\""../../test_img/26.png\"" width=150 style=\""vertical-align:middle\"">---自我""]","","",""
"","","","","","html-keyboard-response","189","459251","0.0-9.0-0.0-0.0-0.0-1.64","null","<span style='color:GreenYellow; font-size: 70px;'>正确! </span>","null","","","","","","","","","","","","","","","","","","","","","","","","","feedback_test","",""
"","","","","","psychophysics","190","461231","0.0-9.0-0.0-0.0-0.0-0.65","977","","arrowleft","","","","","","","","","","","","","key","arrowleft","16.659829059828663","640","356","arrowleft","true","../../test_img/15.png","朋友","matching_task","朋友","[""<img src=\""../../test_img/22.png\"" width=150 style=\""vertical-align:middle\"">---生人"",""<img src=\""../../test_img/15.png\"" width=150 style=\""vertical-align:middle\"">---朋友"",""<img src=\""../../test_img/26.png\"" width=150 style=\""vertical-align:middle\"">---自我""]","","",""
"","","","","","html-keyboard-response","191","461733","0.0-9.0-0.0-0.0-0.0-1.65","null","<span style='color:GreenYellow; font-size: 70px;'>正确! </span>","null","","","","","","","","","","","","","","","","","","","","","","","","","feedback_test","",""
"","","","","","psychophysics","192","463669","0.0-9.0-0.0-0.0-0.0-0.66","934","","arrowleft","","","","","","","","","","","","","key","arrowleft","16.660000000000203","640","356","arrowleft","true","../../test_img/26.png","自我","matching_task","自我","[""<img src=\""../../test_img/22.png\"" width=150 style=\""vertical-align:middle\"">---生人"",""<img src=\""../../test_img/15.png\"" width=150 style=\""vertical-align:middle\"">---朋友"",""<img src=\""../../test_img/26.png\"" width=150 style=\""vertical-align:middle\"">---自我""]","","",""
"","","","","","html-keyboard-response","193","464170","0.0-9.0-0.0-0.0-0.0-1.66","null","<span style='color:GreenYellow; font-size: 70px;'>正确! </span>","null","","","","","","","","","","","","","","","","","","","","","","","","","feedback_test","",""
"","","","","","psychophysics","194","466090","0.0-9.0-0.0-0.0-0.0-0.67","917","","arrowright","","","","","","","","","","","","","key","arrowright","16.65964912280712","640","356","arrowright","true","../../test_img/22.png","自我","matching_task","生人","[""<img src=\""../../test_img/22.png\"" width=150 style=\""vertical-align:middle\"">---生人"",""<img src=\""../../test_img/15.png\"" width=150 style=\""vertical-align:middle\"">---朋友"",""<img src=\""../../test_img/26.png\"" width=150 style=\""vertical-align:middle\"">---自我""]","","",""
"","","","","","html-keyboard-response","195","466591","0.0-9.0-0.0-0.0-0.0-1.67","null","<span style='color:GreenYellow; font-size: 70px;'>正确! </span>","null","","","","","","","","","","","","","","","","","","","","","","","","","feedback_test","",""
"","","","","","psychophysics","196","468491","0.0-9.0-0.0-0.0-0.0-0.68","898","","arrowright","","","","","","","","","","","","","key","arrowright","16.65575221238969","640","356","arrowright","true","../../test_img/26.png","朋友","matching_task","自我","[""<img src=\""../../test_img/22.png\"" width=150 style=\""vertical-align:middle\"">---生人"",""<img src=\""../../test_img/15.png\"" width=150 style=\""vertical-align:middle\"">---朋友"",""<img src=\""../../test_img/26.png\"" width=150 style=\""vertical-align:middle\"">---自我""]","","",""
"","","","","","html-keyboard-response","197","468993","0.0-9.0-0.0-0.0-0.0-1.68","null","<span style='color:GreenYellow; font-size: 70px;'>正确! </span>","null","","","","","","","","","","","","","","","","","","","","","","","","","feedback_test","",""
"","","","","","psychophysics","198","470949","0.0-9.0-0.0-0.0-0.0-0.69","954","","arrowleft","","","","","","","","","","","","","key","arrowleft","16.657999999999788","640","356","arrowleft","true","../../test_img/26.png","自我","matching_task","自我","[""<img src=\""../../test_img/22.png\"" width=150 style=\""vertical-align:middle\"">---生人"",""<img src=\""../../test_img/15.png\"" width=150 style=\""vertical-align:middle\"">---朋友"",""<img src=\""../../test_img/26.png\"" width=150 style=\""vertical-align:middle\"">---自我""]","","",""
"","","","","","html-keyboard-response","199","471452","0.0-9.0-0.0-0.0-0.0-1.69","null","<span style='color:GreenYellow; font-size: 70px;'>正确! </span>","null","","","","","","","","","","","","","","","","","","","","","","","","","feedback_test","",""
"","","","","","psychophysics","200","473280","0.0-9.0-0.0-0.0-0.0-0.70","825","","arrowright","","","","","","","","","","","","","key","arrowright","16.65833333333366","640","356","arrowleft","false","../../test_img/15.png","朋友","matching_task","朋友","[""<img src=\""../../test_img/22.png\"" width=150 style=\""vertical-align:middle\"">---生人"",""<img src=\""../../test_img/15.png\"" width=150 style=\""vertical-align:middle\"">---朋友"",""<img src=\""../../test_img/26.png\"" width=150 style=\""vertical-align:middle\"">---自我""]","","",""
"","","","","","html-keyboard-response","201","473781","0.0-9.0-0.0-0.0-0.0-1.70","null","<span style='color:red; font-size: 70px;'>错误! </span>","null","","","","","","","","","","","","","","","","","","","","","","","","","feedback_test","",""
"","","","","","psychophysics","202","475700","0.0-9.0-0.0-0.0-0.0-0.71","915","","arrowright","","","","","","","","","","","","","key","arrowright","16.66052631578988","640","356","arrowright","true","../../test_img/22.png","朋友","matching_task","生人","[""<img src=\""../../test_img/22.png\"" width=150 style=\""vertical-align:middle\"">---生人"",""<img src=\""../../test_img/15.png\"" width=150 style=\""vertical-align:middle\"">---朋友"",""<img src=\""../../test_img/26.png\"" width=150 style=\""vertical-align:middle\"">---自我""]","","",""
"","","","","","html-keyboard-response","203","476202","0.0-9.0-0.0-0.0-0.0-1.71","null","<span style='color:GreenYellow; font-size: 70px;'>正确! </span>","null","","","","","","","","","","","","","","","","","","","","","","","","","feedback_test","",""
"","","","","","html-keyboard-response","204","482460","0.0-9.0-0.0-0.0-1.0","6255","<style>.context{color:white; font-size: 35px; line-height:40px}</style>                          <div><p class='context'>您正确回答了89% 的试次。</p><p class='context'>您的平均反应时为914毫秒。</p><p class='context'>请按任意键进入休息</p></div>"," ","","","","","","","","","","","","","","","","","","","","","","","","","","",""
"","","","","","html-button-response","205","499273","0.0-9.0-0.0-0.0-2.0","16811","
                    <p>知觉匹配任务中，您还剩余4组实验</p>
                    <p>现在是休息时间，当您结束休息后，您可以点击 结束休息 按钮 继续</p>
                    <p>建议休息时间还剩余<span id=""iii"">60</span>秒</p>","0","","","","","","","","","","","","","","","","","","","","","","","","","","",""
"","","","","","psychophysics","206","501309","0.0-9.0-0.0-0.0-0.1-0.72","1033","","arrowright","","","","","","","","","","","","","key","arrowright","16.659024793388657","640","356","arrowright","true","../../test_img/15.png","生人","matching_task","朋友","[""<img src=\""../../test_img/22.png\"" width=150 style=\""vertical-align:middle\"">---生人"",""<img src=\""../../test_img/15.png\"" width=150 style=\""vertical-align:middle\"">---朋友"",""<img src=\""../../test_img/26.png\"" width=150 style=\""vertical-align:middle\"">---自我""]","","",""
"","","","","","html-keyboard-response","207","501811","0.0-9.0-0.0-0.0-0.1-1.72","null","<span style='color:GreenYellow; font-size: 70px;'>正确! </span>","null","","","","","","","","","","","","","","","","","","","","","","","","","feedback_test","",""
"","","","","","psychophysics","208","503602","0.0-9.0-0.0-0.0-0.1-0.73","788","","arrowright","","","","","","","","","","","","","key","arrowright","16.65500934579449","640","356","arrowright","true","../../test_img/26.png","朋友","matching_task","自我","[""<img src=\""../../test_img/22.png\"" width=150 style=\""vertical-align:middle\"">---生人"",""<img src=\""../../test_img/15.png\"" width=150 style=\""vertical-align:middle\"">---朋友"",""<img src=\""../../test_img/26.png\"" width=150 style=\""vertical-align:middle\"">---自我""]","","",""
"","","","","","html-keyboard-response","209","504105","0.0-9.0-0.0-0.0-0.1-1.73","null","<span style='color:GreenYellow; font-size: 70px;'>正确! </span>","null","","","","","","","","","","","","","","","","","","","","","","","","","feedback_test","",""
"","","","","","psychophysics","210","505831","0.0-9.0-0.0-0.0-0.1-0.74","722","","arrowleft","","","","","","","","","","","","","key","arrowleft","16.658252427184355","640","356","arrowleft","true","../../test_img/15.png","朋友","matching_task","朋友","[""<img src=\""../../test_img/22.png\"" width=150 style=\""vertical-align:middle\"">---生人"",""<img src=\""../../test_img/15.png\"" width=150 style=\""vertical-align:middle\"">---朋友"",""<img src=\""../../test_img/26.png\"" width=150 style=\""vertical-align:middle\"">---自我""]","","",""
"","","","","","html-keyboard-response","211","506332","0.0-9.0-0.0-0.0-0.1-1.74","null","<span style='color:GreenYellow; font-size: 70px;'>正确! </span>","null","","","","","","","","","","","","","","","","","","","","","","","","","feedback_test","",""
"","","","","","psychophysics","212","508347","0.0-9.0-0.0-0.0-0.1-0.75","1013","","arrowleft","","","","","","","","","","","","","key","arrowleft","16.65916666666696","640","356","arrowleft","true","../../test_img/26.png","自我","matching_task","自我","[""<img src=\""../../test_img/22.png\"" width=150 style=\""vertical-align:middle\"">---生人"",""<img src=\""../../test_img/15.png\"" width=150 style=\""vertical-align:middle\"">---朋友"",""<img src=\""../../test_img/26.png\"" width=150 style=\""vertical-align:middle\"">---自我""]","","",""
"","","","","","html-keyboard-response","213","508850","0.0-9.0-0.0-0.0-0.1-1.75","null","<span style='color:GreenYellow; font-size: 70px;'>正确! </span>","null","","","","","","","","","","","","","","","","","","","","","","","","","feedback_test","",""
"","","","","","psychophysics","214","510689","0.0-9.0-0.0-0.0-0.1-0.76","835","","arrowright","","","","","","","","","","","","","key","arrowright","16.65229357798144","640","356","arrowright","true","../../test_img/22.png","自我","matching_task","生人","[""<img src=\""../../test_img/22.png\"" width=150 style=\""vertical-align:middle\"">---生人"",""<img src=\""../../test_img/15.png\"" width=150 style=\""vertical-align:middle\"">---朋友"",""<img src=\""../../test_img/26.png\"" width=150 style=\""vertical-align:middle\"">---自我""]","","",""
"","","","","","html-keyboard-response","215","511190","0.0-9.0-0.0-0.0-0.1-1.76","null","<span style='color:GreenYellow; font-size: 70px;'>正确! </span>","null","","","","","","","","","","","","","","","","","","","","","","","","","feedback_test","",""
"","","","","","psychophysics","216","513087","0.0-9.0-0.0-0.0-0.1-0.77","894","","arrowleft","","","","","","","","","","","","","key","arrowleft","16.658928571428987","640","356","arrowleft","true","../../test_img/22.png","生人","matching_task","生人","[""<img src=\""../../test_img/22.png\"" width=150 style=\""vertical-align:middle\"">---生人"",""<img src=\""../../test_img/15.png\"" width=150 style=\""vertical-align:middle\"">---朋友"",""<img src=\""../../test_img/26.png\"" width=150 style=\""vertical-align:middle\"">---自我""]","","",""
"","","","","","html-keyboard-response","217","513590","0.0-9.0-0.0-0.0-0.1-1.77","null","<span style='color:GreenYellow; font-size: 70px;'>正确! </span>","null","","","","","","","","","","","","","","","","","","","","","","","","","feedback_test","",""
"","","","","","psychophysics","218","515287","0.0-9.0-0.0-0.0-0.1-0.78","695","","arrowright","","","","","","","","","","","","","key","arrowright","16.65899999999965","640","356","arrowright","true","../../test_img/26.png","生人","matching_task","自我","[""<img src=\""../../test_img/22.png\"" width=150 style=\""vertical-align:middle\"">---生人"",""<img src=\""../../test_img/15.png\"" width=150 style=\""vertical-align:middle\"">---朋友"",""<img src=\""../../test_img/26.png\"" width=150 style=\""vertical-align:middle\"">---自我""]","","",""
"","","","","","html-keyboard-response","219","515790","0.0-9.0-0.0-0.0-0.1-1.78","null","<span style='color:GreenYellow; font-size: 70px;'>正确! </span>","null","","","","","","","","","","","","","","","","","","","","","","","","","feedback_test","",""
"","","","","","psychophysics","220","517558","0.0-9.0-0.0-0.0-0.1-0.79","765","","arrowleft","","","","","","","","","","","","","key","arrowleft","16.821359223300746","640","356","arrowleft","true","../../test_img/26.png","自我","matching_task","自我","[""<img src=\""../../test_img/22.png\"" width=150 style=\""vertical-align:middle\"">---生人"",""<img src=\""../../test_img/15.png\"" width=150 style=\""vertical-align:middle\"">---朋友"",""<img src=\""../../test_img/26.png\"" width=150 style=\""vertical-align:middle\"">---自我""]","","",""
"","","","","","html-keyboard-response","221","518062","0.0-9.0-0.0-0.0-0.1-1.79","null","<span style='color:GreenYellow; font-size: 70px;'>正确! </span>","null","","","","","","","","","","","","","","","","","","","","","","","","","feedback_test","",""
"","","","","","psychophysics","222","519794","0.0-9.0-0.0-0.0-0.1-0.80","728","","arrowright","","","","","","","","","","","","","key","arrowright","16.658519230768434","640","356","arrowright","true","../../test_img/22.png","朋友","matching_task","生人","[""<img src=\""../../test_img/22.png\"" width=150 style=\""vertical-align:middle\"">---生人"",""<img src=\""../../test_img/15.png\"" width=150 style=\""vertical-align:middle\"">---朋友"",""<img src=\""../../test_img/26.png\"" width=150 style=\""vertical-align:middle\"">---自我""]","","",""
"","","","","","html-keyboard-response","223","520296","0.0-9.0-0.0-0.0-0.1-1.80","null","<span style='color:GreenYellow; font-size: 70px;'>正确! </span>","null","","","","","","","","","","","","","","","","","","","","","","","","","feedback_test","",""
"","","","","","psychophysics","224","522037","0.0-9.0-0.0-0.0-0.1-0.81","737","","arrowright","","","","","","","","","","","","","key","arrowright","16.6592233009711","640","356","arrowright","true","../../test_img/15.png","自我","matching_task","朋友","[""<img src=\""../../test_img/22.png\"" width=150 style=\""vertical-align:middle\"">---生人"",""<img src=\""../../test_img/15.png\"" width=150 style=\""vertical-align:middle\"">---朋友"",""<img src=\""../../test_img/26.png\"" width=150 style=\""vertical-align:middle\"">---自我""]","","",""
"","","","","","html-keyboard-response","225","522538","0.0-9.0-0.0-0.0-0.1-1.81","null","<span style='color:GreenYellow; font-size: 70px;'>正确! </span>","null","","","","","","","","","","","","","","","","","","","","","","","","","feedback_test","",""
"","","","","","psychophysics","226","524581","0.0-9.0-0.0-0.0-0.1-0.82","1039","","arrowleft","","","","","","","","","","","","","key","arrowleft","16.655622950819946","640","356","arrowleft","true","../../test_img/22.png","生人","matching_task","生人","[""<img src=\""../../test_img/22.png\"" width=150 style=\""vertical-align:middle\"">---生人"",""<img src=\""../../test_img/15.png\"" width=150 style=\""vertical-align:middle\"">---朋友"",""<img src=\""../../test_img/26.png\"" width=150 style=\""vertical-align:middle\"">---自我""]","","",""
"","","","","","html-keyboard-response","227","525083","0.0-9.0-0.0-0.0-0.1-1.82","null","<span style='color:GreenYellow; font-size: 70px;'>正确! </span>","null","","","","","","","","","","","","","","","","","","","","","","","","","feedback_test","",""
"","","","","","psychophysics","228","527029","0.0-9.0-0.0-0.0-0.1-0.83","944","","arrowleft","","","","","","","","","","","","","key","arrowleft","16.660344827586005","640","356","arrowleft","true","../../test_img/15.png","朋友","matching_task","朋友","[""<img src=\""../../test_img/22.png\"" width=150 style=\""vertical-align:middle\"">---生人"",""<img src=\""../../test_img/15.png\"" width=150 style=\""vertical-align:middle\"">---朋友"",""<img src=\""../../test_img/26.png\"" width=150 style=\""vertical-align:middle\"">---自我""]","","",""
"","","","","","html-keyboard-response","229","527533","0.0-9.0-0.0-0.0-0.1-1.83","null","<span style='color:GreenYellow; font-size: 70px;'>正确! </span>","null","","","","","","","","","","","","","","","","","","","","","","","","","feedback_test","",""
"","","","","","psychophysics","230","529272","0.0-9.0-0.0-0.0-0.1-0.84","736","","arrowleft","","","","","","","","","","","","","key","arrowleft","16.65686538461551","640","356","arrowleft","true","../../test_img/26.png","自我","matching_task","自我","[""<img src=\""../../test_img/22.png\"" width=150 style=\""vertical-align:middle\"">---生人"",""<img src=\""../../test_img/15.png\"" width=150 style=\""vertical-align:middle\"">---朋友"",""<img src=\""../../test_img/26.png\"" width=150 style=\""vertical-align:middle\"">---自我""]","","",""
"","","","","","html-keyboard-response","231","529775","0.0-9.0-0.0-0.0-0.1-1.84","null","<span style='color:GreenYellow; font-size: 70px;'>正确! </span>","null","","","","","","","","","","","","","","","","","","","","","","","","","feedback_test","",""
"","","","","","psychophysics","232","531626","0.0-9.0-0.0-0.0-0.1-0.85","844","","arrowleft","","","","","","","","","","","","","key","arrowleft","16.6587155963307","640","356","arrowleft","true","../../test_img/22.png","生人","matching_task","生人","[""<img src=\""../../test_img/22.png\"" width=150 style=\""vertical-align:middle\"">---生人"",""<img src=\""../../test_img/15.png\"" width=150 style=\""vertical-align:middle\"">---朋友"",""<img src=\""../../test_img/26.png\"" width=150 style=\""vertical-align:middle\"">---自我""]","","",""
"","","","","","html-keyboard-response","233","532128","0.0-9.0-0.0-0.0-0.1-1.85","null","<span style='color:GreenYellow; font-size: 70px;'>正确! </span>","null","","","","","","","","","","","","","","","","","","","","","","","","","feedback_test","",""
"","","","","","psychophysics","234","533846","0.0-9.0-0.0-0.0-0.1-0.86","716","","arrowright","","","","","","","","","","","","","key","arrowright","16.659803921567942","640","356","arrowright","true","../../test_img/22.png","自我","matching_task","生人","[""<img src=\""../../test_img/22.png\"" width=150 style=\""vertical-align:middle\"">---生人"",""<img src=\""../../test_img/15.png\"" width=150 style=\""vertical-align:middle\"">---朋友"",""<img src=\""../../test_img/26.png\"" width=150 style=\""vertical-align:middle\"">---自我""]","","",""
"","","","","","html-keyboard-response","235","534347","0.0-9.0-0.0-0.0-0.1-1.86","null","<span style='color:GreenYellow; font-size: 70px;'>正确! </span>","null","","","","","","","","","","","","","","","","","","","","","","","","","feedback_test","",""
"","","","","","psychophysics","236","536104","0.0-9.0-0.0-0.0-0.1-0.87","754","","arrowleft","","","","","","","","","","","","","key","arrowleft","16.65961538461628","640","356","arrowleft","true","../../test_img/15.png","朋友","matching_task","朋友","[""<img src=\""../../test_img/22.png\"" width=150 style=\""vertical-align:middle\"">---生人"",""<img src=\""../../test_img/15.png\"" width=150 style=\""vertical-align:middle\"">---朋友"",""<img src=\""../../test_img/26.png\"" width=150 style=\""vertical-align:middle\"">---自我""]","","",""
"","","","","","html-keyboard-response","237","536605","0.0-9.0-0.0-0.0-0.1-1.87","null","<span style='color:GreenYellow; font-size: 70px;'>正确! </span>","null","","","","","","","","","","","","","","","","","","","","","","","","","feedback_test","",""
"","","","","","psychophysics","238","538465","0.0-9.0-0.0-0.0-0.1-0.88","858","","arrowleft","","","","","","","","","","","","","key","arrowleft","16.659459459460088","640","356","arrowleft","true","../../test_img/15.png","朋友","matching_task","朋友","[""<img src=\""../../test_img/22.png\"" width=150 style=\""vertical-align:middle\"">---生人"",""<img src=\""../../test_img/15.png\"" width=150 style=\""vertical-align:middle\"">---朋友"",""<img src=\""../../test_img/26.png\"" width=150 style=\""vertical-align:middle\"">---自我""]","","",""
"","","","","","html-keyboard-response","239","538967","0.0-9.0-0.0-0.0-0.1-1.88","null","<span style='color:GreenYellow; font-size: 70px;'>正确! </span>","null","","","","","","","","","","","","","","","","","","","","","","","","","feedback_test","",""
"","","","","","psychophysics","240","540684","0.0-9.0-0.0-0.0-0.1-0.89","713","","arrowright","","","","","","","","","","","","","key","arrowright","16.659803921567942","640","356","arrowright","true","../../test_img/15.png","生人","matching_task","朋友","[""<img src=\""../../test_img/22.png\"" width=150 style=\""vertical-align:middle\"">---生人"",""<img src=\""../../test_img/15.png\"" width=150 style=\""vertical-align:middle\"">---朋友"",""<img src=\""../../test_img/26.png\"" width=150 style=\""vertical-align:middle\"">---自我""]","","",""
"","","","","","html-keyboard-response","241","541188","0.0-9.0-0.0-0.0-0.1-1.89","null","<span style='color:GreenYellow; font-size: 70px;'>正确! </span>","null","","","","","","","","","","","","","","","","","","","","","","","","","feedback_test","",""
"","","","","","psychophysics","242","542977","0.0-9.0-0.0-0.0-0.1-0.90","786","","arrowright","","","","","","","","","","","","","key","arrowright","16.813698113207344","640","356","arrowright","true","../../test_img/26.png","朋友","matching_task","自我","[""<img src=\""../../test_img/22.png\"" width=150 style=\""vertical-align:middle\"">---生人"",""<img src=\""../../test_img/15.png\"" width=150 style=\""vertical-align:middle\"">---朋友"",""<img src=\""../../test_img/26.png\"" width=150 style=\""vertical-align:middle\"">---自我""]","","",""
"","","","","","html-keyboard-response","243","543479","0.0-9.0-0.0-0.0-0.1-1.90","null","<span style='color:GreenYellow; font-size: 70px;'>正确! </span>","null","","","","","","","","","","","","","","","","","","","","","","","","","feedback_test","",""
"","","","","","psychophysics","244","545443","0.0-9.0-0.0-0.0-0.1-0.91","961","","arrowright","","","","","","","","","","","","","key","arrowright","16.658620689655372","640","356","arrowright","true","../../test_img/26.png","生人","matching_task","自我","[""<img src=\""../../test_img/22.png\"" width=150 style=\""vertical-align:middle\"">---生人"",""<img src=\""../../test_img/15.png\"" width=150 style=\""vertical-align:middle\"">---朋友"",""<img src=\""../../test_img/26.png\"" width=150 style=\""vertical-align:middle\"">---自我""]","","",""
"","","","","","html-keyboard-response","245","545944","0.0-9.0-0.0-0.0-0.1-1.91","null","<span style='color:GreenYellow; font-size: 70px;'>正确! </span>","null","","","","","","","","","","","","","","","","","","","","","","","","","feedback_test","",""
"","","","","","psychophysics","246","547957","0.0-9.0-0.0-0.0-0.1-0.92","1010","","arrowleft","","","","","","","","","","","","","key","arrowleft","16.6579831932777","640","356","arrowleft","true","../../test_img/26.png","自我","matching_task","自我","[""<img src=\""../../test_img/22.png\"" width=150 style=\""vertical-align:middle\"">---生人"",""<img src=\""../../test_img/15.png\"" width=150 style=\""vertical-align:middle\"">---朋友"",""<img src=\""../../test_img/26.png\"" width=150 style=\""vertical-align:middle\"">---自我""]","","",""
"","","","","","html-keyboard-response","247","548460","0.0-9.0-0.0-0.0-0.1-1.92","null","<span style='color:GreenYellow; font-size: 70px;'>正确! </span>","null","","","","","","","","","","","","","","","","","","","","","","","","","feedback_test","",""
"","","","","","psychophysics","248","550967","0.0-9.0-0.0-0.0-0.1-0.93","null","","null","","","","","","","","","","","","","key","null","16.65906040268425","640","356","arrowleft","false","../../test_img/22.png","生人","matching_task","生人","[""<img src=\""../../test_img/22.png\"" width=150 style=\""vertical-align:middle\"">---生人"",""<img src=\""../../test_img/15.png\"" width=150 style=\""vertical-align:middle\"">---朋友"",""<img src=\""../../test_img/26.png\"" width=150 style=\""vertical-align:middle\"">---自我""]","","",""
"","","","","","html-keyboard-response","249","551469","0.0-9.0-0.0-0.0-0.1-1.93","null","<span class='add_' style='color:yellow; font-size: 70px;'> 太慢! </span>","null","","","","","","","","","","","","","","","","","","","","","","","","","feedback_test","",""
"","","","","","psychophysics","250","553397","0.0-9.0-0.0-0.0-0.1-0.94","924","","arrowright","","","","","","","","","","","","","key","arrowright","16.660000000000203","640","356","arrowright","true","../../test_img/15.png","自我","matching_task","朋友","[""<img src=\""../../test_img/22.png\"" width=150 style=\""vertical-align:middle\"">---生人"",""<img src=\""../../test_img/15.png\"" width=150 style=\""vertical-align:middle\"">---朋友"",""<img src=\""../../test_img/26.png\"" width=150 style=\""vertical-align:middle\"">---自我""]","","",""
"","","","","","html-keyboard-response","251","553900","0.0-9.0-0.0-0.0-0.1-1.94","null","<span style='color:GreenYellow; font-size: 70px;'>正确! </span>","null","","","","","","","","","","","","","","","","","","","","","","","","","feedback_test","",""
"","","","","","psychophysics","252","555837","0.0-9.0-0.0-0.0-0.1-0.95","933","","arrowright","","","","","","","","","","","","","key","arrowright","16.658260869564813","640","356","arrowright","true","../../test_img/22.png","朋友","matching_task","生人","[""<img src=\""../../test_img/22.png\"" width=150 style=\""vertical-align:middle\"">---生人"",""<img src=\""../../test_img/15.png\"" width=150 style=\""vertical-align:middle\"">---朋友"",""<img src=\""../../test_img/26.png\"" width=150 style=\""vertical-align:middle\"">---自我""]","","",""
"","","","","","html-keyboard-response","253","556338","0.0-9.0-0.0-0.0-0.1-1.95","null","<span style='color:GreenYellow; font-size: 70px;'>正确! </span>","null","","","","","","","","","","","","","","","","","","","","","","","","","feedback_test","",""
"","","","","","psychophysics","254","558030","0.0-9.0-0.0-0.0-0.1-0.96","689","","arrowleft","","","","","","","","","","","","","key","arrowleft","16.65657425742472","640","356","arrowleft","true","../../test_img/22.png","生人","matching_task","生人","[""<img src=\""../../test_img/22.png\"" width=150 style=\""vertical-align:middle\"">---生人"",""<img src=\""../../test_img/15.png\"" width=150 style=\""vertical-align:middle\"">---朋友"",""<img src=\""../../test_img/26.png\"" width=150 style=\""vertical-align:middle\"">---自我""]","","",""
"","","","","","html-keyboard-response","255","558533","0.0-9.0-0.0-0.0-0.1-1.96","null","<span style='color:GreenYellow; font-size: 70px;'>正确! </span>","null","","","","","","","","","","","","","","","","","","","","","","","","","feedback_test","",""
