"success","timeout","failed_images","failed_audio","failed_video","trial_type","trial_index","time_elapsed","internal_node_id","rt","stimulus","response","value","item_width_mm","item_height_mm","item_width_px","px2mm","view_dist_mm","item_width_deg","px2deg","scale_factor","win_width_deg","win_height_deg","view_history","response_type","key_press","avg_frame_time","center_x","center_y","correct_response","correct","Image","word","condition","shape","association","screen_id","LeftLable","RightLable"
"true","false","[]","[]","[]","preload","0","403","0.0-0.0","","","","","","","","","","","","","","","","","","","","","","","","","","","","","",""
"","","","","","html-keyboard-response","1","45323","0.0-1.0","44919","
     <p>您好，欢迎参加本次实验。</p>
     <p>为充分保障您的权利，请确保您已经知晓并同意《参与实验同意书》以及《数据公开知情同意书》。</p>
     <p>如果您未见过上述内容，请咨询实验员。</p>
     <p>如果您选择继续实验，则表示您已经清楚两份知情同意书的内容并同意。</p>
     <p> <div style = ""color: green""><按任意键至下页></div> </p>
     ","enter","","","","","","","","","","","","","","","","","","","","","","","","","","",""
"","","","","","html-keyboard-response","2","46735","0.0-2.0","1412","
     <p>本实验首先需要您填写一些基本个人信息。</p>
     <p> <div style = ""color: green""><按任意键至下页></div></p>
     ","enter","","","","","","","","","","","","","","","","","","","","","","","","","","",""
"","","","","","call-function","3","46735","0.0-3.0-0.0","","","","","","","","","","","","","","","","","","","","","","","","","","","","","",""
"","","","","","survey-html-form","4","48718","0.0-3.0-1.0","1981","","{""Q0"":""03""}","","","","","","","","","","","","","","","","","","","","","","","","","","",""
"","","","","","html-button-response","5","49527","0.0-3.0-2.0","807","<p style = 'color : white'>您的性别</p>","0","","","","","","","","","","","","","","","","","","","","","","","","","","",""
"","","","","","survey-html-form","6","53995","0.0-3.0-3.0","4468","","{""Q0"":""2000""}","","","","","","","","","","","","","","","","","","","","","","","","","","",""
"","","","","","survey-html-form","7","60199","0.0-3.0-4.0","6204","","{""Q0"":""6""}","","","","","","","","","","","","","","","","","","","","","","","","","","",""
"","","","","","virtual-chinrest","8","114927","0.0-4.0","54727","","","","85.6","53.98","605.9301733676157","7.0790378790997055","403.2","12.118603467352315","50","0.6766456235729565","37.3","18.5","","","","","","","","","","","","","","","",""
"true","","","","","fullscreen","9","117372","0.0-5.0","","","","","","","","","","","","","","","","","","","","","","","","","","","","","",""
"","","","","","instructions","10","148444","0.0-6.0","31072","","","","","","","","","","","","","","[{""page_index"":0,""viewing_time"":9445},{""page_index"":1,""viewing_time"":6186},{""page_index"":2,""viewing_time"":9119},{""page_index"":3,""viewing_time"":4194},{""page_index"":4,""viewing_time"":2128}]","","","","","","","","","","","","","","",""
"","","","","","psychophysics","11","150950","0.0-7.0-0.0-0.0","null","","null","","","","","","","","","","","","","key","null","6.945530726256983","960","536","arrowright","false","../../test_img/25.png","朋友","prac_matching_task","朋友","[""<img src=\""../../test_img/12.png\"" width=150 style=\""vertical-align:middle\"">---生人"",""<img src=\""../../test_img/19.png\"" width=150 style=\""vertical-align:middle\"">---自我"",""<img src=\""../../test_img/25.png\"" width=150 style=\""vertical-align:middle\"">---朋友""]","","",""
"","","","","","html-keyboard-response","12","151266","0.0-7.0-0.0-1.0","null","<span class='add_' style='color:yellow; font-size: 70px;'> 太慢! </span>","null","","","","","","","","","","","","","","","","","","","","","","","","","feedback_test","",""
"","","","","","psychophysics","13","152880","0.0-7.0-0.0-0.1","610","","arrowright","","","","","","","","","","","","","key","arrowright","6.944155844155743","960","536","arrowright","true","../../test_img/25.png","朋友","prac_matching_task","朋友","[""<img src=\""../../test_img/12.png\"" width=150 style=\""vertical-align:middle\"">---生人"",""<img src=\""../../test_img/19.png\"" width=150 style=\""vertical-align:middle\"">---自我"",""<img src=\""../../test_img/25.png\"" width=150 style=\""vertical-align:middle\"">---朋友""]","","",""
"","","","","","html-keyboard-response","14","153194","0.0-7.0-0.0-1.1","null","<span style='color:GreenYellow; font-size: 70px;'>正确! </span>","null","","","","","","","","","","","","","","","","","","","","","","","","","feedback_test","",""
"","","","","","psychophysics","15","154911","0.0-7.0-0.0-0.2","715","","arrowleft","","","","","","","","","","","","","key","arrowleft","6.945528455284577","960","536","arrowleft","true","../../test_img/25.png","生人","prac_matching_task","朋友","[""<img src=\""../../test_img/12.png\"" width=150 style=\""vertical-align:middle\"">---生人"",""<img src=\""../../test_img/19.png\"" width=150 style=\""vertical-align:middle\"">---自我"",""<img src=\""../../test_img/25.png\"" width=150 style=\""vertical-align:middle\"">---朋友""]","","",""
"","","","","","html-keyboard-response","16","155226","0.0-7.0-0.0-1.2","null","<span style='color:GreenYellow; font-size: 70px;'>正确! </span>","null","","","","","","","","","","","","","","","","","","","","","","","","","feedback_test","",""
"","","","","","psychophysics","17","157136","0.0-7.0-0.0-0.3","908","","arrowright","","","","","","","","","","","","","key","arrowright","6.9452205882353155","960","536","arrowright","true","../../test_img/19.png","自我","prac_matching_task","自我","[""<img src=\""../../test_img/12.png\"" width=150 style=\""vertical-align:middle\"">---生人"",""<img src=\""../../test_img/19.png\"" width=150 style=\""vertical-align:middle\"">---自我"",""<img src=\""../../test_img/25.png\"" width=150 style=\""vertical-align:middle\"">---朋友""]","","",""
"","","","","","html-keyboard-response","18","157438","0.0-7.0-0.0-1.3","null","<span style='color:GreenYellow; font-size: 70px;'>正确! </span>","null","","","","","","","","","","","","","","","","","","","","","","","","","feedback_test","",""
"","","","","","psychophysics","19","159345","0.0-7.0-0.0-0.4","904","","arrowright","","","","","","","","","","","","","key","arrowright","6.945054945054945","960","536","arrowleft","false","../../test_img/19.png","朋友","prac_matching_task","自我","[""<img src=\""../../test_img/12.png\"" width=150 style=\""vertical-align:middle\"">---生人"",""<img src=\""../../test_img/19.png\"" width=150 style=\""vertical-align:middle\"">---自我"",""<img src=\""../../test_img/25.png\"" width=150 style=\""vertical-align:middle\"">---朋友""]","","",""
"","","","","","html-keyboard-response","20","159654","0.0-7.0-0.0-1.4","null","<span style='color:red; font-size: 70px;'>错误! </span>","null","","","","","","","","","","","","","","","","","","","","","","","","","feedback_test","",""
"","","","","","psychophysics","21","161549","0.0-7.0-0.0-0.5","893","","arrowleft","","","","","","","","","","","","","key","arrowleft","6.945018450184524","960","536","arrowleft","true","../../test_img/12.png","朋友","prac_matching_task","生人","[""<img src=\""../../test_img/12.png\"" width=150 style=\""vertical-align:middle\"">---生人"",""<img src=\""../../test_img/19.png\"" width=150 style=\""vertical-align:middle\"">---自我"",""<img src=\""../../test_img/25.png\"" width=150 style=\""vertical-align:middle\"">---朋友""]","","",""
"","","","","","html-keyboard-response","22","161856","0.0-7.0-0.0-1.5","null","<span style='color:GreenYellow; font-size: 70px;'>正确! </span>","null","","","","","","","","","","","","","","","","","","","","","","","","","feedback_test","",""
"","","","","","psychophysics","23","163864","0.0-7.0-0.0-0.6","1003","","arrowleft","","","","","","","","","","","","","key","arrowleft","6.945486111111172","960","536","arrowleft","true","../../test_img/25.png","自我","prac_matching_task","朋友","[""<img src=\""../../test_img/12.png\"" width=150 style=\""vertical-align:middle\"">---生人"",""<img src=\""../../test_img/19.png\"" width=150 style=\""vertical-align:middle\"">---自我"",""<img src=\""../../test_img/25.png\"" width=150 style=\""vertical-align:middle\"">---朋友""]","","",""
"","","","","","html-keyboard-response","24","164176","0.0-7.0-0.0-1.6","null","<span style='color:GreenYellow; font-size: 70px;'>正确! </span>","null","","","","","","","","","","","","","","","","","","","","","","","","","feedback_test","",""
"","","","","","psychophysics","25","166055","0.0-7.0-0.0-0.7","874","","arrowleft","","","","","","","","","","","","","key","arrowleft","6.9453531598512575","960","536","arrowleft","true","../../test_img/19.png","生人","prac_matching_task","自我","[""<img src=\""../../test_img/12.png\"" width=150 style=\""vertical-align:middle\"">---生人"",""<img src=\""../../test_img/19.png\"" width=150 style=\""vertical-align:middle\"">---自我"",""<img src=\""../../test_img/25.png\"" width=150 style=\""vertical-align:middle\"">---朋友""]","","",""
"","","","","","html-keyboard-response","26","166357","0.0-7.0-0.0-1.7","null","<span style='color:GreenYellow; font-size: 70px;'>正确! </span>","null","","","","","","","","","","","","","","","","","","","","","","","","","feedback_test","",""
"","","","","","psychophysics","27","168356","0.0-7.0-0.0-0.8","997","","arrowright","","","","","","","","","","","","","key","arrowright","6.944947735191577","960","536","arrowright","true","../../test_img/19.png","自我","prac_matching_task","自我","[""<img src=\""../../test_img/12.png\"" width=150 style=\""vertical-align:middle\"">---生人"",""<img src=\""../../test_img/19.png\"" width=150 style=\""vertical-align:middle\"">---自我"",""<img src=\""../../test_img/25.png\"" width=150 style=\""vertical-align:middle\"">---朋友""]","","",""
"","","","","","html-keyboard-response","28","168662","0.0-7.0-0.0-1.8","null","<span style='color:GreenYellow; font-size: 70px;'>正确! </span>","null","","","","","","","","","","","","","","","","","","","","","","","","","feedback_test","",""
"","","","","","psychophysics","29","170311","0.0-7.0-0.0-0.9","643","","arrowleft","","","","","","","","","","","","","key","arrowleft","6.945106382978748","960","536","arrowright","false","../../test_img/12.png","生人","prac_matching_task","生人","[""<img src=\""../../test_img/12.png\"" width=150 style=\""vertical-align:middle\"">---生人"",""<img src=\""../../test_img/19.png\"" width=150 style=\""vertical-align:middle\"">---自我"",""<img src=\""../../test_img/25.png\"" width=150 style=\""vertical-align:middle\"">---朋友""]","","",""
"","","","","","html-keyboard-response","30","170624","0.0-7.0-0.0-1.9","null","<span style='color:red; font-size: 70px;'>错误! </span>","null","","","","","","","","","","","","","","","","","","","","","","","","","feedback_test","",""
"","","","","","psychophysics","31","172418","0.0-7.0-0.0-0.10","792","","arrowleft","","","","","","","","","","","","","key","arrowleft","6.944747081712017","960","536","arrowleft","true","../../test_img/12.png","自我","prac_matching_task","生人","[""<img src=\""../../test_img/12.png\"" width=150 style=\""vertical-align:middle\"">---生人"",""<img src=\""../../test_img/19.png\"" width=150 style=\""vertical-align:middle\"">---自我"",""<img src=\""../../test_img/25.png\"" width=150 style=\""vertical-align:middle\"">---朋友""]","","",""
"","","","","","html-keyboard-response","32","172731","0.0-7.0-0.0-1.10","null","<span style='color:GreenYellow; font-size: 70px;'>正确! </span>","null","","","","","","","","","","","","","","","","","","","","","","","","","feedback_test","",""
"","","","","","psychophysics","33","174566","0.0-7.0-0.0-0.11","827","","arrowright","","","","","","","","","","","","","key","arrowright","6.9452471482889955","960","536","arrowright","true","../../test_img/12.png","生人","prac_matching_task","生人","[""<img src=\""../../test_img/12.png\"" width=150 style=\""vertical-align:middle\"">---生人"",""<img src=\""../../test_img/19.png\"" width=150 style=\""vertical-align:middle\"">---自我"",""<img src=\""../../test_img/25.png\"" width=150 style=\""vertical-align:middle\"">---朋友""]","","",""
"","","","","","html-keyboard-response","34","174881","0.0-7.0-0.0-1.11","null","<span style='color:GreenYellow; font-size: 70px;'>正确! </span>","null","","","","","","","","","","","","","","","","","","","","","","","","","feedback_test","",""
"","","","","","psychophysics","35","176703","0.0-7.0-0.0-0.12","819","","arrowleft","","","","","","","","","","","","","key","arrowleft","6.9453846153846825","960","536","arrowleft","true","../../test_img/25.png","生人","prac_matching_task","朋友","[""<img src=\""../../test_img/12.png\"" width=150 style=\""vertical-align:middle\"">---生人"",""<img src=\""../../test_img/19.png\"" width=150 style=\""vertical-align:middle\"">---自我"",""<img src=\""../../test_img/25.png\"" width=150 style=\""vertical-align:middle\"">---朋友""]","","",""
"","","","","","html-keyboard-response","36","177005","0.0-7.0-0.0-1.12","null","<span style='color:GreenYellow; font-size: 70px;'>正确! </span>","null","","","","","","","","","","","","","","","","","","","","","","","","","feedback_test","",""
"","","","","","psychophysics","37","178672","0.0-7.0-0.0-0.13","663","","arrowright","","","","","","","","","","","","","key","arrowright","6.945188284518804","960","536","arrowright","true","../../test_img/25.png","朋友","prac_matching_task","朋友","[""<img src=\""../../test_img/12.png\"" width=150 style=\""vertical-align:middle\"">---生人"",""<img src=\""../../test_img/19.png\"" width=150 style=\""vertical-align:middle\"">---自我"",""<img src=\""../../test_img/25.png\"" width=150 style=\""vertical-align:middle\"">---朋友""]","","",""
"","","","","","html-keyboard-response","38","178974","0.0-7.0-0.0-1.13","null","<span style='color:GreenYellow; font-size: 70px;'>正确! </span>","null","","","","","","","","","","","","","","","","","","","","","","","","","feedback_test","",""
"","","","","","psychophysics","39","180740","0.0-7.0-0.0-0.14","766","","arrowright","","","","","","","","","","","","","key","arrowright","6.940711462450593","960","536","arrowright","true","../../test_img/12.png","生人","prac_matching_task","生人","[""<img src=\""../../test_img/12.png\"" width=150 style=\""vertical-align:middle\"">---生人"",""<img src=\""../../test_img/19.png\"" width=150 style=\""vertical-align:middle\"">---自我"",""<img src=\""../../test_img/25.png\"" width=150 style=\""vertical-align:middle\"">---朋友""]","","",""
"","","","","","html-keyboard-response","40","181045","0.0-7.0-0.0-1.14","null","<span style='color:GreenYellow; font-size: 70px;'>正确! </span>","null","","","","","","","","","","","","","","","","","","","","","","","","","feedback_test","",""
"","","","","","psychophysics","41","182826","0.0-7.0-0.0-0.15","775","","arrowright","","","","","","","","","","","","","key","arrowright","6.94549019607834","960","536","arrowright","true","../../test_img/12.png","生人","prac_matching_task","生人","[""<img src=\""../../test_img/12.png\"" width=150 style=\""vertical-align:middle\"">---生人"",""<img src=\""../../test_img/19.png\"" width=150 style=\""vertical-align:middle\"">---自我"",""<img src=\""../../test_img/25.png\"" width=150 style=\""vertical-align:middle\"">---朋友""]","","",""
"","","","","","html-keyboard-response","42","183136","0.0-7.0-0.0-1.15","null","<span style='color:GreenYellow; font-size: 70px;'>正确! </span>","null","","","","","","","","","","","","","","","","","","","","","","","","","feedback_test","",""
"","","","","","psychophysics","43","184695","0.0-7.0-0.0-0.16","557","","arrowright","","","","","","","","","","","","","key","arrowright","6.945291479820706","960","536","arrowright","true","../../test_img/25.png","朋友","prac_matching_task","朋友","[""<img src=\""../../test_img/12.png\"" width=150 style=\""vertical-align:middle\"">---生人"",""<img src=\""../../test_img/19.png\"" width=150 style=\""vertical-align:middle\"">---自我"",""<img src=\""../../test_img/25.png\"" width=150 style=\""vertical-align:middle\"">---朋友""]","","",""
"","","","","","html-keyboard-response","44","185000","0.0-7.0-0.0-1.16","null","<span style='color:GreenYellow; font-size: 70px;'>正确! </span>","null","","","","","","","","","","","","","","","","","","","","","","","","","feedback_test","",""
"","","","","","psychophysics","45","186676","0.0-7.0-0.0-0.17","673","","arrowleft","","","","","","","","","","","","","key","arrowleft","6.945188284518804","960","536","arrowleft","true","../../test_img/19.png","朋友","prac_matching_task","自我","[""<img src=\""../../test_img/12.png\"" width=150 style=\""vertical-align:middle\"">---生人"",""<img src=\""../../test_img/19.png\"" width=150 style=\""vertical-align:middle\"">---自我"",""<img src=\""../../test_img/25.png\"" width=150 style=\""vertical-align:middle\"">---朋友""]","","",""
"","","","","","html-keyboard-response","46","186979","0.0-7.0-0.0-1.17","null","<span style='color:GreenYellow; font-size: 70px;'>正确! </span>","null","","","","","","","","","","","","","","","","","","","","","","","","","feedback_test","",""
"","","","","","psychophysics","47","188805","0.0-7.0-0.0-0.18","826","","arrowleft","","","","","","","","","","","","","key","arrowleft","6.9452107279693935","960","536","arrowleft","true","../../test_img/12.png","朋友","prac_matching_task","生人","[""<img src=\""../../test_img/12.png\"" width=150 style=\""vertical-align:middle\"">---生人"",""<img src=\""../../test_img/19.png\"" width=150 style=\""vertical-align:middle\"">---自我"",""<img src=\""../../test_img/25.png\"" width=150 style=\""vertical-align:middle\"">---朋友""]","","",""
"","","","","","html-keyboard-response","48","189112","0.0-7.0-0.0-1.18","null","<span style='color:GreenYellow; font-size: 70px;'>正确! </span>","null","","","","","","","","","","","","","","","","","","","","","","","","","feedback_test","",""
"","","","","","psychophysics","49","190752","0.0-7.0-0.0-0.19","640","","arrowright","","","","","","","","","","","","","key","arrowright","6.945531914893543","960","536","arrowright","true","../../test_img/19.png","自我","prac_matching_task","自我","[""<img src=\""../../test_img/12.png\"" width=150 style=\""vertical-align:middle\"">---生人"",""<img src=\""../../test_img/19.png\"" width=150 style=\""vertical-align:middle\"">---自我"",""<img src=\""../../test_img/25.png\"" width=150 style=\""vertical-align:middle\"">---朋友""]","","",""
"","","","","","html-keyboard-response","50","191064","0.0-7.0-0.0-1.19","null","<span style='color:GreenYellow; font-size: 70px;'>正确! </span>","null","","","","","","","","","","","","","","","","","","","","","","","","","feedback_test","",""
"","","","","","psychophysics","51","193034","0.0-7.0-0.0-0.20","968","","arrowleft","","","","","","","","","","","","","key","arrowleft","6.945390070922007","960","536","arrowleft","true","../../test_img/12.png","自我","prac_matching_task","生人","[""<img src=\""../../test_img/12.png\"" width=150 style=\""vertical-align:middle\"">---生人"",""<img src=\""../../test_img/19.png\"" width=150 style=\""vertical-align:middle\"">---自我"",""<img src=\""../../test_img/25.png\"" width=150 style=\""vertical-align:middle\"">---朋友""]","","",""
"","","","","","html-keyboard-response","52","193349","0.0-7.0-0.0-1.20","null","<span style='color:GreenYellow; font-size: 70px;'>正确! </span>","null","","","","","","","","","","","","","","","","","","","","","","","","","feedback_test","",""
"","","","","","psychophysics","53","195114","0.0-7.0-0.0-0.21","763","","arrowleft","","","","","","","","","","","","","key","arrowleft","6.944841269841293","960","536","arrowleft","true","../../test_img/25.png","自我","prac_matching_task","朋友","[""<img src=\""../../test_img/12.png\"" width=150 style=\""vertical-align:middle\"">---生人"",""<img src=\""../../test_img/19.png\"" width=150 style=\""vertical-align:middle\"">---自我"",""<img src=\""../../test_img/25.png\"" width=150 style=\""vertical-align:middle\"">---朋友""]","","",""
"","","","","","html-keyboard-response","54","195419","0.0-7.0-0.0-1.21","null","<span style='color:GreenYellow; font-size: 70px;'>正确! </span>","null","","","","","","","","","","","","","","","","","","","","","","","","","feedback_test","",""
"","","","","","psychophysics","55","197102","0.0-7.0-0.0-0.22","681","","arrowright","","","","","","","","","","","","","key","arrowright","6.944999999999951","960","536","arrowright","true","../../test_img/19.png","自我","prac_matching_task","自我","[""<img src=\""../../test_img/12.png\"" width=150 style=\""vertical-align:middle\"">---生人"",""<img src=\""../../test_img/19.png\"" width=150 style=\""vertical-align:middle\"">---自我"",""<img src=\""../../test_img/25.png\"" width=150 style=\""vertical-align:middle\"">---朋友""]","","",""
"","","","","","html-keyboard-response","56","197406","0.0-7.0-0.0-1.22","null","<span style='color:GreenYellow; font-size: 70px;'>正确! </span>","null","","","","","","","","","","","","","","","","","","","","","","","","","feedback_test","",""
"","","","","","psychophysics","57","199194","0.0-7.0-0.0-0.23","786","","arrowleft","","","","","","","","","","","","","key","arrowleft","6.9450980392156865","960","536","arrowleft","true","../../test_img/19.png","生人","prac_matching_task","自我","[""<img src=\""../../test_img/12.png\"" width=150 style=\""vertical-align:middle\"">---生人"",""<img src=\""../../test_img/19.png\"" width=150 style=\""vertical-align:middle\"">---自我"",""<img src=\""../../test_img/25.png\"" width=150 style=\""vertical-align:middle\"">---朋友""]","","",""
"","","","","","html-keyboard-response","58","199509","0.0-7.0-0.0-1.23","null","<span style='color:GreenYellow; font-size: 70px;'>正确! </span>","null","","","","","","","","","","","","","","","","","","","","","","","","","feedback_test","",""
"","","","","","html-keyboard-response","59","206110","0.0-8.0","6599","<style>.context{color:white; font-size: 35px; line-height:40px}</style>                          <div><p class='context'>您正确回答了88% 的试次。</p ><p class='context'>您的平均反应时为787毫秒。</p ><p class='context'>恭喜您完成练习。按任意键进入知觉匹配任务正式实验。</p ><p style = 'color:lightgreen; font-size: 35px;' >正式实验与练习要求相同，请您尽可能又快又准地进行按键反应</p><p class='footer' style='font-size: 22px; line-height:40px;'>请将您右手的<span style='color: lightgreen;'>食指与无名指</span>放在电脑键盘的相应键位上进行按键。</p >","arrowright","","","","","","","","","","","","","","","","","","","","","","","","","","",""
"","","","","","psychophysics","60","207809","0.0-9.0-0.0-0.0-0.0-0.0","696","","arrowright","","","","","","","","","","","","","key","arrowright","6.945041322314098","960","536","arrowright","true","../../test_img/12.png","生人","matching_task","生人","[""<img src=\""../../test_img/12.png\"" width=150 style=\""vertical-align:middle\"">---生人"",""<img src=\""../../test_img/19.png\"" width=150 style=\""vertical-align:middle\"">---自我"",""<img src=\""../../test_img/25.png\"" width=150 style=\""vertical-align:middle\"">---朋友""]","","",""
"","","","","","html-keyboard-response","61","208319","0.0-9.0-0.0-0.0-0.0-1.0","null","<span style='color:GreenYellow; font-size: 70px;'>正确! </span>","null","","","","","","","","","","","","","","","","","","","","","","","","","feedback_test","",""
"","","","","","psychophysics","62","209870","0.0-9.0-0.0-0.0-0.0-0.1","545","","arrowright","","","","","","","","","","","","","key","arrowright","6.945495495495469","960","536","arrowright","true","../../test_img/19.png","自我","matching_task","自我","[""<img src=\""../../test_img/12.png\"" width=150 style=\""vertical-align:middle\"">---生人"",""<img src=\""../../test_img/19.png\"" width=150 style=\""vertical-align:middle\"">---自我"",""<img src=\""../../test_img/25.png\"" width=150 style=\""vertical-align:middle\"">---朋友""]","","",""
"","","","","","html-keyboard-response","63","210383","0.0-9.0-0.0-0.0-0.0-1.1","null","<span style='color:GreenYellow; font-size: 70px;'>正确! </span>","null","","","","","","","","","","","","","","","","","","","","","","","","","feedback_test","",""
"","","","","","psychophysics","64","212104","0.0-9.0-0.0-0.0-0.0-0.2","716","","arrowleft","","","","","","","","","","","","","key","arrowleft","6.945344129554656","960","536","arrowleft","true","../../test_img/25.png","生人","matching_task","朋友","[""<img src=\""../../test_img/12.png\"" width=150 style=\""vertical-align:middle\"">---生人"",""<img src=\""../../test_img/19.png\"" width=150 style=\""vertical-align:middle\"">---自我"",""<img src=\""../../test_img/25.png\"" width=150 style=\""vertical-align:middle\"">---朋友""]","","",""
"","","","","","html-keyboard-response","65","212607","0.0-9.0-0.0-0.0-0.0-1.2","null","<span style='color:GreenYellow; font-size: 70px;'>正确! </span>","null","","","","","","","","","","","","","","","","","","","","","","","","","feedback_test","",""
"","","","","","psychophysics","66","214314","0.0-9.0-0.0-0.0-0.0-0.3","704","","arrowleft","","","","","","","","","","","","","key","arrowleft","6.945081967213139","960","536","arrowleft","true","../../test_img/19.png","生人","matching_task","自我","[""<img src=\""../../test_img/12.png\"" width=150 style=\""vertical-align:middle\"">---生人"",""<img src=\""../../test_img/19.png\"" width=150 style=\""vertical-align:middle\"">---自我"",""<img src=\""../../test_img/25.png\"" width=150 style=\""vertical-align:middle\"">---朋友""]","","",""
"","","","","","html-keyboard-response","67","214816","0.0-9.0-0.0-0.0-0.0-1.3","null","<span style='color:GreenYellow; font-size: 70px;'>正确! </span>","null","","","","","","","","","","","","","","","","","","","","","","","","","feedback_test","",""
"","","","","","psychophysics","68","216392","0.0-9.0-0.0-0.0-0.0-0.4","573","","arrowright","","","","","","","","","","","","","key","arrowright","6.94557522123899","960","536","arrowright","true","../../test_img/25.png","朋友","matching_task","朋友","[""<img src=\""../../test_img/12.png\"" width=150 style=\""vertical-align:middle\"">---生人"",""<img src=\""../../test_img/19.png\"" width=150 style=\""vertical-align:middle\"">---自我"",""<img src=\""../../test_img/25.png\"" width=150 style=\""vertical-align:middle\"">---朋友""]","","",""
"","","","","","html-keyboard-response","69","216903","0.0-9.0-0.0-0.0-0.0-1.4","null","<span style='color:GreenYellow; font-size: 70px;'>正确! </span>","null","","","","","","","","","","","","","","","","","","","","","","","","","feedback_test","",""
"","","","","","psychophysics","70","219045","0.0-9.0-0.0-0.0-0.0-0.5","1135","","arrowright","","","","","","","","","","","","","key","arrowright","6.945098039215725","960","536","arrowleft","false","../../test_img/19.png","朋友","matching_task","自我","[""<img src=\""../../test_img/12.png\"" width=150 style=\""vertical-align:middle\"">---生人"",""<img src=\""../../test_img/19.png\"" width=150 style=\""vertical-align:middle\"">---自我"",""<img src=\""../../test_img/25.png\"" width=150 style=\""vertical-align:middle\"">---朋友""]","","",""
"","","","","","html-keyboard-response","71","219558","0.0-9.0-0.0-0.0-0.0-1.5","null","<span style='color:red; font-size: 70px;'>错误! </span>","null","","","","","","","","","","","","","","","","","","","","","","","","","feedback_test","",""
"","","","","","psychophysics","72","221245","0.0-9.0-0.0-0.0-0.0-0.6","683","","arrowleft","","","","","","","","","","","","","key","arrowleft","6.944813278008347","960","536","arrowleft","true","../../test_img/12.png","自我","matching_task","生人","[""<img src=\""../../test_img/12.png\"" width=150 style=\""vertical-align:middle\"">---生人"",""<img src=\""../../test_img/19.png\"" width=150 style=\""vertical-align:middle\"">---自我"",""<img src=\""../../test_img/25.png\"" width=150 style=\""vertical-align:middle\"">---朋友""]","","",""
"","","","","","html-keyboard-response","73","221751","0.0-9.0-0.0-0.0-0.0-1.6","null","<span style='color:GreenYellow; font-size: 70px;'>正确! </span>","null","","","","","","","","","","","","","","","","","","","","","","","","","feedback_test","",""
"","","","","","psychophysics","74","223358","0.0-9.0-0.0-0.0-0.0-0.7","607","","arrowright","","","","","","","","","","","","","key","arrowright","6.945217391304323","960","536","arrowright","true","../../test_img/12.png","生人","matching_task","生人","[""<img src=\""../../test_img/12.png\"" width=150 style=\""vertical-align:middle\"">---生人"",""<img src=\""../../test_img/19.png\"" width=150 style=\""vertical-align:middle\"">---自我"",""<img src=\""../../test_img/25.png\"" width=150 style=\""vertical-align:middle\"">---朋友""]","","",""
"","","","","","html-keyboard-response","75","223868","0.0-9.0-0.0-0.0-0.0-1.7","null","<span style='color:GreenYellow; font-size: 70px;'>正确! </span>","null","","","","","","","","","","","","","","","","","","","","","","","","","feedback_test","",""
"","","","","","psychophysics","76","225672","0.0-9.0-0.0-0.0-0.0-0.8","803","","arrowleft","","","","","","","","","","","","","key","arrowleft","6.9422480620154134","960","536","arrowleft","true","../../test_img/25.png","自我","matching_task","朋友","[""<img src=\""../../test_img/12.png\"" width=150 style=\""vertical-align:middle\"">---生人"",""<img src=\""../../test_img/19.png\"" width=150 style=\""vertical-align:middle\"">---自我"",""<img src=\""../../test_img/25.png\"" width=150 style=\""vertical-align:middle\"">---朋友""]","","",""
"","","","","","html-keyboard-response","77","226180","0.0-9.0-0.0-0.0-0.0-1.8","null","<span style='color:GreenYellow; font-size: 70px;'>正确! </span>","null","","","","","","","","","","","","","","","","","","","","","","","","","feedback_test","",""
"","","","","","psychophysics","78","227754","0.0-9.0-0.0-0.0-0.0-0.9","573","","arrowleft","","","","","","","","","","","","","key","arrowleft","6.945777777777726","960","536","arrowleft","true","../../test_img/12.png","朋友","matching_task","生人","[""<img src=\""../../test_img/12.png\"" width=150 style=\""vertical-align:middle\"">---生人"",""<img src=\""../../test_img/19.png\"" width=150 style=\""vertical-align:middle\"">---自我"",""<img src=\""../../test_img/25.png\"" width=150 style=\""vertical-align:middle\"">---朋友""]","","",""
"","","","","","html-keyboard-response","79","228255","0.0-9.0-0.0-0.0-0.0-1.9","null","<span style='color:GreenYellow; font-size: 70px;'>正确! </span>","null","","","","","","","","","","","","","","","","","","","","","","","","","feedback_test","",""
"","","","","","psychophysics","80","229805","0.0-9.0-0.0-0.0-0.0-0.10","547","","arrowright","","","","","","","","","","","","","key","arrowright","6.9457013574660635","960","536","arrowright","true","../../test_img/19.png","自我","matching_task","自我","[""<img src=\""../../test_img/12.png\"" width=150 style=\""vertical-align:middle\"">---生人"",""<img src=\""../../test_img/19.png\"" width=150 style=\""vertical-align:middle\"">---自我"",""<img src=\""../../test_img/25.png\"" width=150 style=\""vertical-align:middle\"">---朋友""]","","",""
"","","","","","html-keyboard-response","81","230315","0.0-9.0-0.0-0.0-0.0-1.10","null","<span style='color:GreenYellow; font-size: 70px;'>正确! </span>","null","","","","","","","","","","","","","","","","","","","","","","","","","feedback_test","",""
"","","","","","psychophysics","82","231923","0.0-9.0-0.0-0.0-0.0-0.11","602","","arrowright","","","","","","","","","","","","","key","arrowright","6.945414847161572","960","536","arrowright","true","../../test_img/25.png","朋友","matching_task","朋友","[""<img src=\""../../test_img/12.png\"" width=150 style=\""vertical-align:middle\"">---生人"",""<img src=\""../../test_img/19.png\"" width=150 style=\""vertical-align:middle\"">---自我"",""<img src=\""../../test_img/25.png\"" width=150 style=\""vertical-align:middle\"">---朋友""]","","",""
"","","","","","html-keyboard-response","83","232437","0.0-9.0-0.0-0.0-0.0-1.11","null","<span style='color:GreenYellow; font-size: 70px;'>正确! </span>","null","","","","","","","","","","","","","","","","","","","","","","","","","feedback_test","",""
"","","","","","psychophysics","84","234041","0.0-9.0-0.0-0.0-0.0-0.12","602","","arrowleft","","","","","","","","","","","","","key","arrowleft","6.945414847161572","960","536","arrowleft","true","../../test_img/12.png","朋友","matching_task","生人","[""<img src=\""../../test_img/12.png\"" width=150 style=\""vertical-align:middle\"">---生人"",""<img src=\""../../test_img/19.png\"" width=150 style=\""vertical-align:middle\"">---自我"",""<img src=\""../../test_img/25.png\"" width=150 style=\""vertical-align:middle\"">---朋友""]","","",""
"","","","","","html-keyboard-response","85","234553","0.0-9.0-0.0-0.0-0.0-1.12","null","<span style='color:GreenYellow; font-size: 70px;'>正确! </span>","null","","","","","","","","","","","","","","","","","","","","","","","","","feedback_test","",""
"","","","","","psychophysics","86","236117","0.0-9.0-0.0-0.0-0.0-0.13","560","","arrowright","","","","","","","","","","","","","key","arrowright","6.945089285714338","960","536","arrowleft","false","../../test_img/25.png","生人","matching_task","朋友","[""<img src=\""../../test_img/12.png\"" width=150 style=\""vertical-align:middle\"">---生人"",""<img src=\""../../test_img/19.png\"" width=150 style=\""vertical-align:middle\"">---自我"",""<img src=\""../../test_img/25.png\"" width=150 style=\""vertical-align:middle\"">---朋友""]","","",""
"","","","","","html-keyboard-response","87","236618","0.0-9.0-0.0-0.0-0.0-1.13","null","<span style='color:red; font-size: 70px;'>错误! </span>","null","","","","","","","","","","","","","","","","","","","","","","","","","feedback_test","",""
"","","","","","psychophysics","88","238297","0.0-9.0-0.0-0.0-0.0-0.14","676","","arrowright","","","","","","","","","","","","","key","arrowright","6.945606694560669","960","536","arrowright","true","../../test_img/25.png","朋友","matching_task","朋友","[""<img src=\""../../test_img/12.png\"" width=150 style=\""vertical-align:middle\"">---生人"",""<img src=\""../../test_img/19.png\"" width=150 style=\""vertical-align:middle\"">---自我"",""<img src=\""../../test_img/25.png\"" width=150 style=\""vertical-align:middle\"">---朋友""]","","",""
"","","","","","html-keyboard-response","89","238812","0.0-9.0-0.0-0.0-0.0-1.14","null","<span style='color:GreenYellow; font-size: 70px;'>正确! </span>","null","","","","","","","","","","","","","","","","","","","","","","","","","feedback_test","",""
"","","","","","psychophysics","90","240426","0.0-9.0-0.0-0.0-0.0-0.15","611","","arrowright","","","","","","","","","","","","","key","arrowright","6.944588744588795","960","536","arrowright","true","../../test_img/25.png","朋友","matching_task","朋友","[""<img src=\""../../test_img/12.png\"" width=150 style=\""vertical-align:middle\"">---生人"",""<img src=\""../../test_img/19.png\"" width=150 style=\""vertical-align:middle\"">---自我"",""<img src=\""../../test_img/25.png\"" width=150 style=\""vertical-align:middle\"">---朋友""]","","",""
"","","","","","html-keyboard-response","91","240941","0.0-9.0-0.0-0.0-0.0-1.15","null","<span style='color:GreenYellow; font-size: 70px;'>正确! </span>","null","","","","","","","","","","","","","","","","","","","","","","","","","feedback_test","",""
"","","","","","psychophysics","92","242583","0.0-9.0-0.0-0.0-0.0-0.16","633","","arrowright","","","","","","","","","","","","","key","arrowright","6.945106382978748","960","536","arrowright","true","../../test_img/19.png","自我","matching_task","自我","[""<img src=\""../../test_img/12.png\"" width=150 style=\""vertical-align:middle\"">---生人"",""<img src=\""../../test_img/19.png\"" width=150 style=\""vertical-align:middle\"">---自我"",""<img src=\""../../test_img/25.png\"" width=150 style=\""vertical-align:middle\"">---朋友""]","","",""
"","","","","","html-keyboard-response","93","243090","0.0-9.0-0.0-0.0-0.0-1.16","null","<span style='color:GreenYellow; font-size: 70px;'>正确! </span>","null","","","","","","","","","","","","","","","","","","","","","","","","","feedback_test","",""
"","","","","","psychophysics","94","244668","0.0-9.0-0.0-0.0-0.0-0.17","575","","arrowright","","","","","","","","","","","","","key","arrowright","6.945333333333385","960","536","arrowright","true","../../test_img/12.png","生人","matching_task","生人","[""<img src=\""../../test_img/12.png\"" width=150 style=\""vertical-align:middle\"">---生人"",""<img src=\""../../test_img/19.png\"" width=150 style=\""vertical-align:middle\"">---自我"",""<img src=\""../../test_img/25.png\"" width=150 style=\""vertical-align:middle\"">---朋友""]","","",""
"","","","","","html-keyboard-response","95","245176","0.0-9.0-0.0-0.0-0.0-1.17","null","<span style='color:GreenYellow; font-size: 70px;'>正确! </span>","null","","","","","","","","","","","","","","","","","","","","","","","","","feedback_test","",""
"","","","","","psychophysics","96","246861","0.0-9.0-0.0-0.0-0.0-0.18","684","","arrowleft","","","","","","","","","","","","","key","arrowleft","6.943568464730267","960","536","arrowleft","true","../../test_img/12.png","自我","matching_task","生人","[""<img src=\""../../test_img/12.png\"" width=150 style=\""vertical-align:middle\"">---生人"",""<img src=\""../../test_img/19.png\"" width=150 style=\""vertical-align:middle\"">---自我"",""<img src=\""../../test_img/25.png\"" width=150 style=\""vertical-align:middle\"">---朋友""]","","",""
"","","","","","html-keyboard-response","97","247363","0.0-9.0-0.0-0.0-0.0-1.18","null","<span style='color:GreenYellow; font-size: 70px;'>正确! </span>","null","","","","","","","","","","","","","","","","","","","","","","","","","feedback_test","",""
"","","","","","psychophysics","98","249000","0.0-9.0-0.0-0.0-0.0-0.19","636","","arrowright","","","","","","","","","","","","","key","arrowright","6.94468085106383","960","536","arrowright","true","../../test_img/12.png","生人","matching_task","生人","[""<img src=\""../../test_img/12.png\"" width=150 style=\""vertical-align:middle\"">---生人"",""<img src=\""../../test_img/19.png\"" width=150 style=\""vertical-align:middle\"">---自我"",""<img src=\""../../test_img/25.png\"" width=150 style=\""vertical-align:middle\"">---朋友""]","","",""
"","","","","","html-keyboard-response","99","249516","0.0-9.0-0.0-0.0-0.0-1.19","null","<span style='color:GreenYellow; font-size: 70px;'>正确! </span>","null","","","","","","","","","","","","","","","","","","","","","","","","","feedback_test","",""
"","","","","","psychophysics","100","251246","0.0-9.0-0.0-0.0-0.0-0.20","729","","arrowleft","","","","","","","","","","","","","key","arrowleft","6.944939271255037","960","536","arrowleft","true","../../test_img/19.png","生人","matching_task","自我","[""<img src=\""../../test_img/12.png\"" width=150 style=\""vertical-align:middle\"">---生人"",""<img src=\""../../test_img/19.png\"" width=150 style=\""vertical-align:middle\"">---自我"",""<img src=\""../../test_img/25.png\"" width=150 style=\""vertical-align:middle\"">---朋友""]","","",""
"","","","","","html-keyboard-response","101","251760","0.0-9.0-0.0-0.0-0.0-1.20","null","<span style='color:GreenYellow; font-size: 70px;'>正确! </span>","null","","","","","","","","","","","","","","","","","","","","","","","","","feedback_test","",""
"","","","","","psychophysics","102","253538","0.0-9.0-0.0-0.0-0.0-0.21","776","","arrowleft","","","","","","","","","","","","","key","arrowleft","6.945059288537458","960","536","arrowleft","true","../../test_img/25.png","自我","matching_task","朋友","[""<img src=\""../../test_img/12.png\"" width=150 style=\""vertical-align:middle\"">---生人"",""<img src=\""../../test_img/19.png\"" width=150 style=\""vertical-align:middle\"">---自我"",""<img src=\""../../test_img/25.png\"" width=150 style=\""vertical-align:middle\"">---朋友""]","","",""
"","","","","","html-keyboard-response","103","254047","0.0-9.0-0.0-0.0-0.0-1.21","null","<span style='color:GreenYellow; font-size: 70px;'>正确! </span>","null","","","","","","","","","","","","","","","","","","","","","","","","","feedback_test","",""
"","","","","","psychophysics","104","255759","0.0-9.0-0.0-0.0-0.0-0.22","706","","arrowright","","","","","","","","","","","","","key","arrowright","6.945306122448884","960","536","arrowright","true","../../test_img/19.png","自我","matching_task","自我","[""<img src=\""../../test_img/12.png\"" width=150 style=\""vertical-align:middle\"">---生人"",""<img src=\""../../test_img/19.png\"" width=150 style=\""vertical-align:middle\"">---自我"",""<img src=\""../../test_img/25.png\"" width=150 style=\""vertical-align:middle\"">---朋友""]","","",""
"","","","","","html-keyboard-response","105","256264","0.0-9.0-0.0-0.0-0.0-1.22","null","<span style='color:GreenYellow; font-size: 70px;'>正确! </span>","null","","","","","","","","","","","","","","","","","","","","","","","","","feedback_test","",""
"","","","","","psychophysics","106","257938","0.0-9.0-0.0-0.0-0.0-0.23","669","","arrowleft","","","","","","","","","","","","","key","arrowleft","6.945606694560669","960","536","arrowleft","true","../../test_img/19.png","朋友","matching_task","自我","[""<img src=\""../../test_img/12.png\"" width=150 style=\""vertical-align:middle\"">---生人"",""<img src=\""../../test_img/19.png\"" width=150 style=\""vertical-align:middle\"">---自我"",""<img src=\""../../test_img/25.png\"" width=150 style=\""vertical-align:middle\"">---朋友""]","","",""
"","","","","","html-keyboard-response","107","258442","0.0-9.0-0.0-0.0-0.0-1.23","null","<span style='color:GreenYellow; font-size: 70px;'>正确! </span>","null","","","","","","","","","","","","","","","","","","","","","","","","","feedback_test","",""
"","","","","","psychophysics","108","260162","0.0-9.0-0.0-0.0-0.0-0.24","713","","arrowleft","","","","","","","","","","","","","key","arrowleft","6.945121951219394","960","536","arrowleft","true","../../test_img/19.png","朋友","matching_task","自我","[""<img src=\""../../test_img/12.png\"" width=150 style=\""vertical-align:middle\"">---生人"",""<img src=\""../../test_img/19.png\"" width=150 style=\""vertical-align:middle\"">---自我"",""<img src=\""../../test_img/25.png\"" width=150 style=\""vertical-align:middle\"">---朋友""]","","",""
"","","","","","html-keyboard-response","109","260676","0.0-9.0-0.0-0.0-0.0-1.24","null","<span style='color:GreenYellow; font-size: 70px;'>正确! </span>","null","","","","","","","","","","","","","","","","","","","","","","","","","feedback_test","",""
"","","","","","psychophysics","110","262260","0.0-9.0-0.0-0.0-0.0-0.25","581","","arrowleft","","","","","","","","","","","","","key","arrowleft","6.9453744493393605","960","536","arrowleft","true","../../test_img/19.png","生人","matching_task","自我","[""<img src=\""../../test_img/12.png\"" width=150 style=\""vertical-align:middle\"">---生人"",""<img src=\""../../test_img/19.png\"" width=150 style=\""vertical-align:middle\"">---自我"",""<img src=\""../../test_img/25.png\"" width=150 style=\""vertical-align:middle\"">---朋友""]","","",""
"","","","","","html-keyboard-response","111","262766","0.0-9.0-0.0-0.0-0.0-1.25","null","<span style='color:GreenYellow; font-size: 70px;'>正确! </span>","null","","","","","","","","","","","","","","","","","","","","","","","","","feedback_test","",""
"","","","","","psychophysics","112","264321","0.0-9.0-0.0-0.0-0.0-0.26","552","","arrowright","","","","","","","","","","","","","key","arrowright","6.9454954954956","960","536","arrowright","true","../../test_img/25.png","朋友","matching_task","朋友","[""<img src=\""../../test_img/12.png\"" width=150 style=\""vertical-align:middle\"">---生人"",""<img src=\""../../test_img/19.png\"" width=150 style=\""vertical-align:middle\"">---自我"",""<img src=\""../../test_img/25.png\"" width=150 style=\""vertical-align:middle\"">---朋友""]","","",""
"","","","","","html-keyboard-response","113","264830","0.0-9.0-0.0-0.0-0.0-1.26","null","<span style='color:GreenYellow; font-size: 70px;'>正确! </span>","null","","","","","","","","","","","","","","","","","","","","","","","","","feedback_test","",""
"","","","","","psychophysics","114","266429","0.0-9.0-0.0-0.0-0.0-0.27","597","","arrowleft","","","","","","","","","","","","","key","arrowleft","6.9451754385964914","960","536","arrowleft","true","../../test_img/12.png","朋友","matching_task","生人","[""<img src=\""../../test_img/12.png\"" width=150 style=\""vertical-align:middle\"">---生人"",""<img src=\""../../test_img/19.png\"" width=150 style=\""vertical-align:middle\"">---自我"",""<img src=\""../../test_img/25.png\"" width=150 style=\""vertical-align:middle\"">---朋友""]","","",""
"","","","","","html-keyboard-response","115","266933","0.0-9.0-0.0-0.0-0.0-1.27","null","<span style='color:GreenYellow; font-size: 70px;'>正确! </span>","null","","","","","","","","","","","","","","","","","","","","","","","","","feedback_test","",""
"","","","","","psychophysics","116","268795","0.0-9.0-0.0-0.0-0.0-0.28","858","","arrowright","","","","","","","","","","","","","key","arrowright","6.945318352059794","960","536","arrowright","true","../../test_img/12.png","生人","matching_task","生人","[""<img src=\""../../test_img/12.png\"" width=150 style=\""vertical-align:middle\"">---生人"",""<img src=\""../../test_img/19.png\"" width=150 style=\""vertical-align:middle\"">---自我"",""<img src=\""../../test_img/25.png\"" width=150 style=\""vertical-align:middle\"">---朋友""]","","",""
"","","","","","html-keyboard-response","117","269296","0.0-9.0-0.0-0.0-0.0-1.28","null","<span style='color:GreenYellow; font-size: 70px;'>正确! </span>","null","","","","","","","","","","","","","","","","","","","","","","","","","feedback_test","",""
"","","","","","psychophysics","118","270860","0.0-9.0-0.0-0.0-0.0-0.29","562","","arrowright","","","","","","","","","","","","","key","arrowright","6.9452914798208365","960","536","arrowright","true","../../test_img/19.png","自我","matching_task","自我","[""<img src=\""../../test_img/12.png\"" width=150 style=\""vertical-align:middle\"">---生人"",""<img src=\""../../test_img/19.png\"" width=150 style=\""vertical-align:middle\"">---自我"",""<img src=\""../../test_img/25.png\"" width=150 style=\""vertical-align:middle\"">---朋友""]","","",""
"","","","","","html-keyboard-response","119","271369","0.0-9.0-0.0-0.0-0.0-1.29","null","<span style='color:GreenYellow; font-size: 70px;'>正确! </span>","null","","","","","","","","","","","","","","","","","","","","","","","","","feedback_test","",""
"","","","","","psychophysics","120","272985","0.0-9.0-0.0-0.0-0.0-0.30","611","","arrowleft","","","","","","","","","","","","","key","arrowleft","6.945454545454394","960","536","arrowleft","true","../../test_img/12.png","自我","matching_task","生人","[""<img src=\""../../test_img/12.png\"" width=150 style=\""vertical-align:middle\"">---生人"",""<img src=\""../../test_img/19.png\"" width=150 style=\""vertical-align:middle\"">---自我"",""<img src=\""../../test_img/25.png\"" width=150 style=\""vertical-align:middle\"">---朋友""]","","",""
"","","","","","html-keyboard-response","121","273487","0.0-9.0-0.0-0.0-0.0-1.30","null","<span style='color:GreenYellow; font-size: 70px;'>正确! </span>","null","","","","","","","","","","","","","","","","","","","","","","","","","feedback_test","",""
"","","","","","psychophysics","122","275044","0.0-9.0-0.0-0.0-0.0-0.31","551","","arrowright","","","","","","","","","","","","","key","arrowright","6.9452914798208365","960","536","arrowright","true","../../test_img/25.png","朋友","matching_task","朋友","[""<img src=\""../../test_img/12.png\"" width=150 style=\""vertical-align:middle\"">---生人"",""<img src=\""../../test_img/19.png\"" width=150 style=\""vertical-align:middle\"">---自我"",""<img src=\""../../test_img/25.png\"" width=150 style=\""vertical-align:middle\"">---朋友""]","","",""
"","","","","","html-keyboard-response","123","275557","0.0-9.0-0.0-0.0-0.0-1.31","null","<span style='color:GreenYellow; font-size: 70px;'>正确! </span>","null","","","","","","","","","","","","","","","","","","","","","","","","","feedback_test","",""
"","","","","","psychophysics","124","277099","0.0-9.0-0.0-0.0-0.0-0.32","537","","arrowright","","","","","","","","","","","","","key","arrowright","6.9457013574660635","960","536","arrowright","true","../../test_img/19.png","自我","matching_task","自我","[""<img src=\""../../test_img/12.png\"" width=150 style=\""vertical-align:middle\"">---生人"",""<img src=\""../../test_img/19.png\"" width=150 style=\""vertical-align:middle\"">---自我"",""<img src=\""../../test_img/25.png\"" width=150 style=\""vertical-align:middle\"">---朋友""]","","",""
"","","","","","html-keyboard-response","125","277615","0.0-9.0-0.0-0.0-0.0-1.32","null","<span style='color:GreenYellow; font-size: 70px;'>正确! </span>","null","","","","","","","","","","","","","","","","","","","","","","","","","feedback_test","",""
"","","","","","psychophysics","126","279063","0.0-9.0-0.0-0.0-0.0-0.33","445","","arrowright","","","","","","","","","","","","","key","arrowright","6.9451456310680175","960","536","arrowright","true","../../test_img/12.png","生人","matching_task","生人","[""<img src=\""../../test_img/12.png\"" width=150 style=\""vertical-align:middle\"">---生人"",""<img src=\""../../test_img/19.png\"" width=150 style=\""vertical-align:middle\"">---自我"",""<img src=\""../../test_img/25.png\"" width=150 style=\""vertical-align:middle\"">---朋友""]","","",""
"","","","","","html-keyboard-response","127","279570","0.0-9.0-0.0-0.0-0.0-1.33","null","<span style='color:GreenYellow; font-size: 70px;'>正确! </span>","null","","","","","","","","","","","","","","","","","","","","","","","","","feedback_test","",""
"","","","","","psychophysics","128","281395","0.0-9.0-0.0-0.0-0.0-0.34","825","","arrowleft","","","","","","","","","","","","","key","arrowleft","6.9452107279693935","960","536","arrowleft","true","../../test_img/25.png","自我","matching_task","朋友","[""<img src=\""../../test_img/12.png\"" width=150 style=\""vertical-align:middle\"">---生人"",""<img src=\""../../test_img/19.png\"" width=150 style=\""vertical-align:middle\"">---自我"",""<img src=\""../../test_img/25.png\"" width=150 style=\""vertical-align:middle\"">---朋友""]","","",""
"","","","","","html-keyboard-response","129","281900","0.0-9.0-0.0-0.0-0.0-1.34","null","<span style='color:GreenYellow; font-size: 70px;'>正确! </span>","null","","","","","","","","","","","","","","","","","","","","","","","","","feedback_test","",""
"","","","","","psychophysics","130","283859","0.0-9.0-0.0-0.0-0.0-0.35","956","","arrowleft","","","","","","","","","","","","","key","arrowleft","6.945357142857184","960","536","arrowleft","true","../../test_img/25.png","生人","matching_task","朋友","[""<img src=\""../../test_img/12.png\"" width=150 style=\""vertical-align:middle\"">---生人"",""<img src=\""../../test_img/19.png\"" width=150 style=\""vertical-align:middle\"">---自我"",""<img src=\""../../test_img/25.png\"" width=150 style=\""vertical-align:middle\"">---朋友""]","","",""
"","","","","","html-keyboard-response","131","284365","0.0-9.0-0.0-0.0-0.0-1.35","null","<span style='color:GreenYellow; font-size: 70px;'>正确! </span>","null","","","","","","","","","","","","","","","","","","","","","","","","","feedback_test","",""
"","","","","","psychophysics","132","285962","0.0-9.0-0.0-0.0-0.0-0.36","592","","arrowleft","","","","","","","","","","","","","key","arrowleft","6.945614035087872","960","536","arrowleft","true","../../test_img/12.png","自我","matching_task","生人","[""<img src=\""../../test_img/12.png\"" width=150 style=\""vertical-align:middle\"">---生人"",""<img src=\""../../test_img/19.png\"" width=150 style=\""vertical-align:middle\"">---自我"",""<img src=\""../../test_img/25.png\"" width=150 style=\""vertical-align:middle\"">---朋友""]","","",""
"","","","","","html-keyboard-response","133","286476","0.0-9.0-0.0-0.0-0.0-1.36","null","<span style='color:GreenYellow; font-size: 70px;'>正确! </span>","null","","","","","","","","","","","","","","","","","","","","","","","","","feedback_test","",""
"","","","","","psychophysics","134","288146","0.0-9.0-0.0-0.0-0.0-0.37","668","","arrowright","","","","","","","","","","","","","key","arrowright","6.946025104602413","960","536","arrowright","true","../../test_img/25.png","朋友","matching_task","朋友","[""<img src=\""../../test_img/12.png\"" width=150 style=\""vertical-align:middle\"">---生人"",""<img src=\""../../test_img/19.png\"" width=150 style=\""vertical-align:middle\"">---自我"",""<img src=\""../../test_img/25.png\"" width=150 style=\""vertical-align:middle\"">---朋友""]","","",""
"","","","","","html-keyboard-response","135","288655","0.0-9.0-0.0-0.0-0.0-1.37","null","<span style='color:GreenYellow; font-size: 70px;'>正确! </span>","null","","","","","","","","","","","","","","","","","","","","","","","","","feedback_test","",""
"","","","","","psychophysics","136","290338","0.0-9.0-0.0-0.0-0.0-0.38","677","","arrowright","","","","","","","","","","","","","key","arrowright","6.945228215767828","960","536","arrowright","true","../../test_img/25.png","朋友","matching_task","朋友","[""<img src=\""../../test_img/12.png\"" width=150 style=\""vertical-align:middle\"">---生人"",""<img src=\""../../test_img/19.png\"" width=150 style=\""vertical-align:middle\"">---自我"",""<img src=\""../../test_img/25.png\"" width=150 style=\""vertical-align:middle\"">---朋友""]","","",""
"","","","","","html-keyboard-response","137","290847","0.0-9.0-0.0-0.0-0.0-1.38","null","<span style='color:GreenYellow; font-size: 70px;'>正确! </span>","null","","","","","","","","","","","","","","","","","","","","","","","","","feedback_test","",""
"","","","","","psychophysics","138","292410","0.0-9.0-0.0-0.0-0.0-0.39","560","","arrowright","","","","","","","","","","","","","key","arrowright","6.945291479820575","960","536","arrowright","true","../../test_img/12.png","生人","matching_task","生人","[""<img src=\""../../test_img/12.png\"" width=150 style=\""vertical-align:middle\"">---生人"",""<img src=\""../../test_img/19.png\"" width=150 style=\""vertical-align:middle\"">---自我"",""<img src=\""../../test_img/25.png\"" width=150 style=\""vertical-align:middle\"">---朋友""]","","",""
"","","","","","html-keyboard-response","139","292921","0.0-9.0-0.0-0.0-0.0-1.39","null","<span style='color:GreenYellow; font-size: 70px;'>正确! </span>","null","","","","","","","","","","","","","","","","","","","","","","","","","feedback_test","",""
"","","","","","psychophysics","140","294893","0.0-9.0-0.0-0.0-0.0-0.40","967","","arrowleft","","","","","","","","","","","","","key","arrowleft","6.945229681978798","960","536","arrowleft","true","../../test_img/25.png","生人","matching_task","朋友","[""<img src=\""../../test_img/12.png\"" width=150 style=\""vertical-align:middle\"">---生人"",""<img src=\""../../test_img/19.png\"" width=150 style=\""vertical-align:middle\"">---自我"",""<img src=\""../../test_img/25.png\"" width=150 style=\""vertical-align:middle\"">---朋友""]","","",""
"","","","","","html-keyboard-response","141","295400","0.0-9.0-0.0-0.0-0.0-1.40","null","<span style='color:GreenYellow; font-size: 70px;'>正确! </span>","null","","","","","","","","","","","","","","","","","","","","","","","","","feedback_test","",""
"","","","","","psychophysics","142","297090","0.0-9.0-0.0-0.0-0.0-0.41","685","","arrowleft","","","","","","","","","","","","","key","arrowleft","6.945643153526826","960","536","arrowleft","true","../../test_img/19.png","朋友","matching_task","自我","[""<img src=\""../../test_img/12.png\"" width=150 style=\""vertical-align:middle\"">---生人"",""<img src=\""../../test_img/19.png\"" width=150 style=\""vertical-align:middle\"">---自我"",""<img src=\""../../test_img/25.png\"" width=150 style=\""vertical-align:middle\"">---朋友""]","","",""
"","","","","","html-keyboard-response","143","297594","0.0-9.0-0.0-0.0-0.0-1.41","null","<span style='color:GreenYellow; font-size: 70px;'>正确! </span>","null","","","","","","","","","","","","","","","","","","","","","","","","","feedback_test","",""
"","","","","","psychophysics","144","299362","0.0-9.0-0.0-0.0-0.0-0.42","762","","arrowright","","","","","","","","","","","","","key","arrowright","6.9454545454545915","960","536","arrowright","true","../../test_img/19.png","自我","matching_task","自我","[""<img src=\""../../test_img/12.png\"" width=150 style=\""vertical-align:middle\"">---生人"",""<img src=\""../../test_img/19.png\"" width=150 style=\""vertical-align:middle\"">---自我"",""<img src=\""../../test_img/25.png\"" width=150 style=\""vertical-align:middle\"">---朋友""]","","",""
"","","","","","html-keyboard-response","145","299875","0.0-9.0-0.0-0.0-0.0-1.42","null","<span style='color:GreenYellow; font-size: 70px;'>正确! </span>","null","","","","","","","","","","","","","","","","","","","","","","","","","feedback_test","",""
"","","","","","psychophysics","146","301649","0.0-9.0-0.0-0.0-0.0-0.43","771","","arrowleft","","","","","","","","","","","","","key","arrowleft","6.9454545454545915","960","536","arrowleft","true","../../test_img/25.png","自我","matching_task","朋友","[""<img src=\""../../test_img/12.png\"" width=150 style=\""vertical-align:middle\"">---生人"",""<img src=\""../../test_img/19.png\"" width=150 style=\""vertical-align:middle\"">---自我"",""<img src=\""../../test_img/25.png\"" width=150 style=\""vertical-align:middle\"">---朋友""]","","",""
"","","","","","html-keyboard-response","147","302154","0.0-9.0-0.0-0.0-0.0-1.43","null","<span style='color:GreenYellow; font-size: 70px;'>正确! </span>","null","","","","","","","","","","","","","","","","","","","","","","","","","feedback_test","",""
"","","","","","psychophysics","148","303865","0.0-9.0-0.0-0.0-0.0-0.44","709","","arrowleft","","","","","","","","","","","","","key","arrowleft","6.9454918032787365","960","536","arrowleft","true","../../test_img/12.png","朋友","matching_task","生人","[""<img src=\""../../test_img/12.png\"" width=150 style=\""vertical-align:middle\"">---生人"",""<img src=\""../../test_img/19.png\"" width=150 style=\""vertical-align:middle\"">---自我"",""<img src=\""../../test_img/25.png\"" width=150 style=\""vertical-align:middle\"">---朋友""]","","",""
"","","","","","html-keyboard-response","149","304380","0.0-9.0-0.0-0.0-0.0-1.44","null","<span style='color:GreenYellow; font-size: 70px;'>正确! </span>","null","","","","","","","","","","","","","","","","","","","","","","","","","feedback_test","",""
"","","","","","psychophysics","150","306045","0.0-9.0-0.0-0.0-0.0-0.45","659","","arrowleft","","","","","","","","","","","","","key","arrowleft","6.944957983193375","960","536","arrowleft","true","../../test_img/19.png","生人","matching_task","自我","[""<img src=\""../../test_img/12.png\"" width=150 style=\""vertical-align:middle\"">---生人"",""<img src=\""../../test_img/19.png\"" width=150 style=\""vertical-align:middle\"">---自我"",""<img src=\""../../test_img/25.png\"" width=150 style=\""vertical-align:middle\"">---朋友""]","","",""
"","","","","","html-keyboard-response","151","306546","0.0-9.0-0.0-0.0-0.0-1.45","null","<span style='color:GreenYellow; font-size: 70px;'>正确! </span>","null","","","","","","","","","","","","","","","","","","","","","","","","","feedback_test","",""
"","","","","","psychophysics","152","308155","0.0-9.0-0.0-0.0-0.0-0.46","603","","arrowright","","","","","","","","","","","","","key","arrowright","6.9447826086956015","960","536","arrowright","true","../../test_img/19.png","自我","matching_task","自我","[""<img src=\""../../test_img/12.png\"" width=150 style=\""vertical-align:middle\"">---生人"",""<img src=\""../../test_img/19.png\"" width=150 style=\""vertical-align:middle\"">---自我"",""<img src=\""../../test_img/25.png\"" width=150 style=\""vertical-align:middle\"">---朋友""]","","",""
"","","","","","html-keyboard-response","153","308668","0.0-9.0-0.0-0.0-0.0-1.46","null","<span style='color:GreenYellow; font-size: 70px;'>正确! </span>","null","","","","","","","","","","","","","","","","","","","","","","","","","feedback_test","",""
"","","","","","psychophysics","154","310247","0.0-9.0-0.0-0.0-0.0-0.47","577","","arrowright","","","","","","","","","","","","","key","arrowright","6.944888888888785","960","536","arrowright","true","../../test_img/12.png","生人","matching_task","生人","[""<img src=\""../../test_img/12.png\"" width=150 style=\""vertical-align:middle\"">---生人"",""<img src=\""../../test_img/19.png\"" width=150 style=\""vertical-align:middle\"">---自我"",""<img src=\""../../test_img/25.png\"" width=150 style=\""vertical-align:middle\"">---朋友""]","","",""
"","","","","","html-keyboard-response","155","310751","0.0-9.0-0.0-0.0-0.0-1.47","null","<span style='color:GreenYellow; font-size: 70px;'>正确! </span>","null","","","","","","","","","","","","","","","","","","","","","","","","","feedback_test","",""
"","","","","","psychophysics","156","312529","0.0-9.0-0.0-0.0-0.0-0.48","774","","arrowleft","","","","","","","","","","","","","key","arrowleft","6.945275590551319","960","536","arrowleft","true","../../test_img/19.png","朋友","matching_task","自我","[""<img src=\""../../test_img/12.png\"" width=150 style=\""vertical-align:middle\"">---生人"",""<img src=\""../../test_img/19.png\"" width=150 style=\""vertical-align:middle\"">---自我"",""<img src=\""../../test_img/25.png\"" width=150 style=\""vertical-align:middle\"">---朋友""]","","",""
"","","","","","html-keyboard-response","157","313031","0.0-9.0-0.0-0.0-0.0-1.48","null","<span style='color:GreenYellow; font-size: 70px;'>正确! </span>","null","","","","","","","","","","","","","","","","","","","","","","","","","feedback_test","",""
"","","","","","psychophysics","158","314637","0.0-9.0-0.0-0.0-0.0-0.49","604","","arrowright","","","","","","","","","","","","","key","arrowright","6.944978165938966","960","536","arrowright","true","../../test_img/25.png","朋友","matching_task","朋友","[""<img src=\""../../test_img/12.png\"" width=150 style=\""vertical-align:middle\"">---生人"",""<img src=\""../../test_img/19.png\"" width=150 style=\""vertical-align:middle\"">---自我"",""<img src=\""../../test_img/25.png\"" width=150 style=\""vertical-align:middle\"">---朋友""]","","",""
"","","","","","html-keyboard-response","159","315145","0.0-9.0-0.0-0.0-0.0-1.49","null","<span style='color:GreenYellow; font-size: 70px;'>正确! </span>","null","","","","","","","","","","","","","","","","","","","","","","","","","feedback_test","",""
"","","","","","psychophysics","160","316671","0.0-9.0-0.0-0.0-0.0-0.50","520","","arrowright","","","","","","","","","","","","","key","arrowright","6.945622119815722","960","536","arrowleft","false","../../test_img/25.png","自我","matching_task","朋友","[""<img src=\""../../test_img/12.png\"" width=150 style=\""vertical-align:middle\"">---生人"",""<img src=\""../../test_img/19.png\"" width=150 style=\""vertical-align:middle\"">---自我"",""<img src=\""../../test_img/25.png\"" width=150 style=\""vertical-align:middle\"">---朋友""]","","",""
"","","","","","html-keyboard-response","161","317175","0.0-9.0-0.0-0.0-0.0-1.50","null","<span style='color:red; font-size: 70px;'>错误! </span>","null","","","","","","","","","","","","","","","","","","","","","","","","","feedback_test","",""
"","","","","","psychophysics","162","318785","0.0-9.0-0.0-0.0-0.0-0.51","606","","arrowright","","","","","","","","","","","","","key","arrowright","6.943913043478413","960","536","arrowright","true","../../test_img/12.png","生人","matching_task","生人","[""<img src=\""../../test_img/12.png\"" width=150 style=\""vertical-align:middle\"">---生人"",""<img src=\""../../test_img/19.png\"" width=150 style=\""vertical-align:middle\"">---自我"",""<img src=\""../../test_img/25.png\"" width=150 style=\""vertical-align:middle\"">---朋友""]","","",""
"","","","","","html-keyboard-response","163","319296","0.0-9.0-0.0-0.0-0.0-1.51","null","<span style='color:GreenYellow; font-size: 70px;'>正确! </span>","null","","","","","","","","","","","","","","","","","","","","","","","","","feedback_test","",""
"","","","","","psychophysics","164","320992","0.0-9.0-0.0-0.0-0.0-0.52","695","","arrowleft","","","","","","","","","","","","","key","arrowleft","6.942975206611618","960","536","arrowleft","true","../../test_img/25.png","生人","matching_task","朋友","[""<img src=\""../../test_img/12.png\"" width=150 style=\""vertical-align:middle\"">---生人"",""<img src=\""../../test_img/19.png\"" width=150 style=\""vertical-align:middle\"">---自我"",""<img src=\""../../test_img/25.png\"" width=150 style=\""vertical-align:middle\"">---朋友""]","","",""
"","","","","","html-keyboard-response","165","321506","0.0-9.0-0.0-0.0-0.0-1.52","null","<span style='color:GreenYellow; font-size: 70px;'>正确! </span>","null","","","","","","","","","","","","","","","","","","","","","","","","","feedback_test","",""
"","","","","","psychophysics","166","323315","0.0-9.0-0.0-0.0-0.0-0.53","809","","arrowleft","","","","","","","","","","","","","key","arrowleft","6.945559845559935","960","536","arrowleft","true","../../test_img/19.png","生人","matching_task","自我","[""<img src=\""../../test_img/12.png\"" width=150 style=\""vertical-align:middle\"">---生人"",""<img src=\""../../test_img/19.png\"" width=150 style=\""vertical-align:middle\"">---自我"",""<img src=\""../../test_img/25.png\"" width=150 style=\""vertical-align:middle\"">---朋友""]","","",""
"","","","","","html-keyboard-response","167","323825","0.0-9.0-0.0-0.0-0.0-1.53","null","<span style='color:GreenYellow; font-size: 70px;'>正确! </span>","null","","","","","","","","","","","","","","","","","","","","","","","","","feedback_test","",""
"","","","","","psychophysics","168","325647","0.0-9.0-0.0-0.0-0.0-0.54","821","","arrowleft","","","","","","","","","","","","","key","arrowleft","6.941762452107235","960","536","arrowleft","true","../../test_img/12.png","自我","matching_task","生人","[""<img src=\""../../test_img/12.png\"" width=150 style=\""vertical-align:middle\"">---生人"",""<img src=\""../../test_img/19.png\"" width=150 style=\""vertical-align:middle\"">---自我"",""<img src=\""../../test_img/25.png\"" width=150 style=\""vertical-align:middle\"">---朋友""]","","",""
"","","","","","html-keyboard-response","169","326155","0.0-9.0-0.0-0.0-0.0-1.54","null","<span style='color:GreenYellow; font-size: 70px;'>正确! </span>","null","","","","","","","","","","","","","","","","","","","","","","","","","feedback_test","",""
"","","","","","psychophysics","170","327932","0.0-9.0-0.0-0.0-0.0-0.55","773","","arrowright","","","","","","","","","","","","","key","arrowright","6.94549019607834","960","536","arrowright","true","../../test_img/19.png","自我","matching_task","自我","[""<img src=\""../../test_img/12.png\"" width=150 style=\""vertical-align:middle\"">---生人"",""<img src=\""../../test_img/19.png\"" width=150 style=\""vertical-align:middle\"">---自我"",""<img src=\""../../test_img/25.png\"" width=150 style=\""vertical-align:middle\"">---朋友""]","","",""
"","","","","","html-keyboard-response","171","328440","0.0-9.0-0.0-0.0-0.0-1.55","null","<span style='color:GreenYellow; font-size: 70px;'>正确! </span>","null","","","","","","","","","","","","","","","","","","","","","","","","","feedback_test","",""
"","","","","","psychophysics","172","330189","0.0-9.0-0.0-0.0-0.0-0.56","745","","arrowleft","","","","","","","","","","","","","key","arrowleft","6.945199999999954","960","536","arrowright","false","../../test_img/19.png","自我","matching_task","自我","[""<img src=\""../../test_img/12.png\"" width=150 style=\""vertical-align:middle\"">---生人"",""<img src=\""../../test_img/19.png\"" width=150 style=\""vertical-align:middle\"">---自我"",""<img src=\""../../test_img/25.png\"" width=150 style=\""vertical-align:middle\"">---朋友""]","","",""
"","","","","","html-keyboard-response","173","330692","0.0-9.0-0.0-0.0-0.0-1.56","null","<span style='color:red; font-size: 70px;'>错误! </span>","null","","","","","","","","","","","","","","","","","","","","","","","","","feedback_test","",""
"","","","","","psychophysics","174","332284","0.0-9.0-0.0-0.0-0.0-0.57","591","","arrowright","","","","","","","","","","","","","key","arrowright","6.945374449339105","960","536","arrowright","true","../../test_img/12.png","生人","matching_task","生人","[""<img src=\""../../test_img/12.png\"" width=150 style=\""vertical-align:middle\"">---生人"",""<img src=\""../../test_img/19.png\"" width=150 style=\""vertical-align:middle\"">---自我"",""<img src=\""../../test_img/25.png\"" width=150 style=\""vertical-align:middle\"">---朋友""]","","",""
"","","","","","html-keyboard-response","175","332799","0.0-9.0-0.0-0.0-0.0-1.57","null","<span style='color:GreenYellow; font-size: 70px;'>正确! </span>","null","","","","","","","","","","","","","","","","","","","","","","","","","feedback_test","",""
"","","","","","psychophysics","176","334380","0.0-9.0-0.0-0.0-0.0-0.58","577","","arrowright","","","","","","","","","","","","","key","arrowright","6.945575221238732","960","536","arrowright","true","../../test_img/25.png","朋友","matching_task","朋友","[""<img src=\""../../test_img/12.png\"" width=150 style=\""vertical-align:middle\"">---生人"",""<img src=\""../../test_img/19.png\"" width=150 style=\""vertical-align:middle\"">---自我"",""<img src=\""../../test_img/25.png\"" width=150 style=\""vertical-align:middle\"">---朋友""]","","",""
"","","","","","html-keyboard-response","177","334895","0.0-9.0-0.0-0.0-0.0-1.58","null","<span style='color:GreenYellow; font-size: 70px;'>正确! </span>","null","","","","","","","","","","","","","","","","","","","","","","","","","feedback_test","",""
"","","","","","psychophysics","178","336460","0.0-9.0-0.0-0.0-0.0-0.59","563","","arrowleft","","","","","","","","","","","","","key","arrowleft","6.945089285714078","960","536","arrowleft","true","../../test_img/12.png","朋友","matching_task","生人","[""<img src=\""../../test_img/12.png\"" width=150 style=\""vertical-align:middle\"">---生人"",""<img src=\""../../test_img/19.png\"" width=150 style=\""vertical-align:middle\"">---自我"",""<img src=\""../../test_img/25.png\"" width=150 style=\""vertical-align:middle\"">---朋友""]","","",""
"","","","","","html-keyboard-response","179","336963","0.0-9.0-0.0-0.0-0.0-1.59","null","<span style='color:GreenYellow; font-size: 70px;'>正确! </span>","null","","","","","","","","","","","","","","","","","","","","","","","","","feedback_test","",""
"","","","","","psychophysics","180","338545","0.0-9.0-0.0-0.0-0.0-0.60","579","","arrowright","","","","","","","","","","","","","key","arrowright","6.945132743362986","960","536","arrowright","true","../../test_img/25.png","朋友","matching_task","朋友","[""<img src=\""../../test_img/12.png\"" width=150 style=\""vertical-align:middle\"">---生人"",""<img src=\""../../test_img/19.png\"" width=150 style=\""vertical-align:middle\"">---自我"",""<img src=\""../../test_img/25.png\"" width=150 style=\""vertical-align:middle\"">---朋友""]","","",""
"","","","","","html-keyboard-response","181","339054","0.0-9.0-0.0-0.0-0.0-1.60","null","<span style='color:GreenYellow; font-size: 70px;'>正确! </span>","null","","","","","","","","","","","","","","","","","","","","","","","","","feedback_test","",""
"","","","","","psychophysics","182","340657","0.0-9.0-0.0-0.0-0.0-0.61","601","","arrowright","","","","","","","","","","","","","key","arrowright","6.945217391304196","960","536","arrowright","true","../../test_img/12.png","生人","matching_task","生人","[""<img src=\""../../test_img/12.png\"" width=150 style=\""vertical-align:middle\"">---生人"",""<img src=\""../../test_img/19.png\"" width=150 style=\""vertical-align:middle\"">---自我"",""<img src=\""../../test_img/25.png\"" width=150 style=\""vertical-align:middle\"">---朋友""]","","",""
"","","","","","html-keyboard-response","183","341170","0.0-9.0-0.0-0.0-0.0-1.61","null","<span style='color:GreenYellow; font-size: 70px;'>正确! </span>","null","","","","","","","","","","","","","","","","","","","","","","","","","feedback_test","",""
"","","","","","psychophysics","184","342921","0.0-9.0-0.0-0.0-0.0-0.62","746","","arrowleft","","","","","","","","","","","","","key","arrowleft","6.945199999999954","960","536","arrowleft","true","../../test_img/25.png","生人","matching_task","朋友","[""<img src=\""../../test_img/12.png\"" width=150 style=\""vertical-align:middle\"">---生人"",""<img src=\""../../test_img/19.png\"" width=150 style=\""vertical-align:middle\"">---自我"",""<img src=\""../../test_img/25.png\"" width=150 style=\""vertical-align:middle\"">---朋友""]","","",""
"","","","","","html-keyboard-response","185","343434","0.0-9.0-0.0-0.0-0.0-1.62","null","<span style='color:GreenYellow; font-size: 70px;'>正确! </span>","null","","","","","","","","","","","","","","","","","","","","","","","","","feedback_test","",""
"","","","","","psychophysics","186","345033","0.0-9.0-0.0-0.0-0.0-0.63","594","","arrowright","","","","","","","","","","","","","key","arrowright","6.9451754385964914","960","536","arrowright","true","../../test_img/12.png","生人","matching_task","生人","[""<img src=\""../../test_img/12.png\"" width=150 style=\""vertical-align:middle\"">---生人"",""<img src=\""../../test_img/19.png\"" width=150 style=\""vertical-align:middle\"">---自我"",""<img src=\""../../test_img/25.png\"" width=150 style=\""vertical-align:middle\"">---朋友""]","","",""
"","","","","","html-keyboard-response","187","345536","0.0-9.0-0.0-0.0-0.0-1.63","null","<span style='color:GreenYellow; font-size: 70px;'>正确! </span>","null","","","","","","","","","","","","","","","","","","","","","","","","","feedback_test","",""
"","","","","","psychophysics","188","347109","0.0-9.0-0.0-0.0-0.0-0.64","566","","arrowright","","","","","","","","","","","","","key","arrowright","6.945089285714338","960","536","arrowright","true","../../test_img/19.png","自我","matching_task","自我","[""<img src=\""../../test_img/12.png\"" width=150 style=\""vertical-align:middle\"">---生人"",""<img src=\""../../test_img/19.png\"" width=150 style=\""vertical-align:middle\"">---自我"",""<img src=\""../../test_img/25.png\"" width=150 style=\""vertical-align:middle\"">---朋友""]","","",""
"","","","","","html-keyboard-response","189","347611","0.0-9.0-0.0-0.0-0.0-1.64","null","<span style='color:GreenYellow; font-size: 70px;'>正确! </span>","null","","","","","","","","","","","","","","","","","","","","","","","","","feedback_test","",""
"","","","","","psychophysics","190","349282","0.0-9.0-0.0-0.0-0.0-0.65","668","","arrowleft","","","","","","","","","","","","","key","arrowleft","6.945378151260504","960","536","arrowleft","true","../../test_img/12.png","自我","matching_task","生人","[""<img src=\""../../test_img/12.png\"" width=150 style=\""vertical-align:middle\"">---生人"",""<img src=\""../../test_img/19.png\"" width=150 style=\""vertical-align:middle\"">---自我"",""<img src=\""../../test_img/25.png\"" width=150 style=\""vertical-align:middle\"">---朋友""]","","",""
"","","","","","html-keyboard-response","191","349792","0.0-9.0-0.0-0.0-0.0-1.65","null","<span style='color:GreenYellow; font-size: 70px;'>正确! </span>","null","","","","","","","","","","","","","","","","","","","","","","","","","feedback_test","",""
"","","","","","psychophysics","192","351511","0.0-9.0-0.0-0.0-0.0-0.66","717","","arrowleft","","","","","","","","","","","","","key","arrowleft","6.945121951219512","960","536","arrowleft","true","../../test_img/12.png","朋友","matching_task","生人","[""<img src=\""../../test_img/12.png\"" width=150 style=\""vertical-align:middle\"">---生人"",""<img src=\""../../test_img/19.png\"" width=150 style=\""vertical-align:middle\"">---自我"",""<img src=\""../../test_img/25.png\"" width=150 style=\""vertical-align:middle\"">---朋友""]","","",""
"","","","","","html-keyboard-response","193","352023","0.0-9.0-0.0-0.0-0.0-1.66","null","<span style='color:GreenYellow; font-size: 70px;'>正确! </span>","null","","","","","","","","","","","","","","","","","","","","","","","","","feedback_test","",""
"","","","","","psychophysics","194","353709","0.0-9.0-0.0-0.0-0.0-0.67","679","","arrowright","","","","","","","","","","","","","key","arrowright","6.942738589211666","960","536","arrowright","true","../../test_img/19.png","自我","matching_task","自我","[""<img src=\""../../test_img/12.png\"" width=150 style=\""vertical-align:middle\"">---生人"",""<img src=\""../../test_img/19.png\"" width=150 style=\""vertical-align:middle\"">---自我"",""<img src=\""../../test_img/25.png\"" width=150 style=\""vertical-align:middle\"">---朋友""]","","",""
"","","","","","html-keyboard-response","195","354216","0.0-9.0-0.0-0.0-0.0-1.67","null","<span style='color:GreenYellow; font-size: 70px;'>正确! </span>","null","","","","","","","","","","","","","","","","","","","","","","","","","feedback_test","",""
"","","","","","psychophysics","196","356182","0.0-9.0-0.0-0.0-0.0-0.68","964","","arrowleft","","","","","","","","","","","","","key","arrowleft","6.945551601423529","960","536","arrowleft","true","../../test_img/19.png","生人","matching_task","自我","[""<img src=\""../../test_img/12.png\"" width=150 style=\""vertical-align:middle\"">---生人"",""<img src=\""../../test_img/19.png\"" width=150 style=\""vertical-align:middle\"">---自我"",""<img src=\""../../test_img/25.png\"" width=150 style=\""vertical-align:middle\"">---朋友""]","","",""
"","","","","","html-keyboard-response","197","356685","0.0-9.0-0.0-0.0-0.0-1.68","null","<span style='color:GreenYellow; font-size: 70px;'>正确! </span>","null","","","","","","","","","","","","","","","","","","","","","","","","","feedback_test","",""
"","","","","","psychophysics","198","358444","0.0-9.0-0.0-0.0-0.0-0.69","753","","arrowright","","","","","","","","","","","","","key","arrowright","6.945238095238142","960","536","arrowleft","false","../../test_img/19.png","朋友","matching_task","自我","[""<img src=\""../../test_img/12.png\"" width=150 style=\""vertical-align:middle\"">---生人"",""<img src=\""../../test_img/19.png\"" width=150 style=\""vertical-align:middle\"">---自我"",""<img src=\""../../test_img/25.png\"" width=150 style=\""vertical-align:middle\"">---朋友""]","","",""
"","","","","","html-keyboard-response","199","358947","0.0-9.0-0.0-0.0-0.0-1.69","null","<span style='color:red; font-size: 70px;'>错误! </span>","null","","","","","","","","","","","","","","","","","","","","","","","","","feedback_test","",""
"","","","","","psychophysics","200","360630","0.0-9.0-0.0-0.0-0.0-0.70","682","","arrowright","","","","","","","","","","","","","key","arrowright","6.945643153526826","960","536","arrowright","true","../../test_img/25.png","朋友","matching_task","朋友","[""<img src=\""../../test_img/12.png\"" width=150 style=\""vertical-align:middle\"">---生人"",""<img src=\""../../test_img/19.png\"" width=150 style=\""vertical-align:middle\"">---自我"",""<img src=\""../../test_img/25.png\"" width=150 style=\""vertical-align:middle\"">---朋友""]","","",""
"","","","","","html-keyboard-response","201","361140","0.0-9.0-0.0-0.0-0.0-1.70","null","<span style='color:GreenYellow; font-size: 70px;'>正确! </span>","null","","","","","","","","","","","","","","","","","","","","","","","","","feedback_test","",""
"","","","","","psychophysics","202","362738","0.0-9.0-0.0-0.0-0.0-0.71","595","","arrowright","","","","","","","","","","","","","key","arrowright","6.9449339207048455","960","536","arrowleft","false","../../test_img/25.png","自我","matching_task","朋友","[""<img src=\""../../test_img/12.png\"" width=150 style=\""vertical-align:middle\"">---生人"",""<img src=\""../../test_img/19.png\"" width=150 style=\""vertical-align:middle\"">---自我"",""<img src=\""../../test_img/25.png\"" width=150 style=\""vertical-align:middle\"">---朋友""]","","",""
"","","","","","html-keyboard-response","203","363243","0.0-9.0-0.0-0.0-0.0-1.71","null","<span style='color:red; font-size: 70px;'>错误! </span>","null","","","","","","","","","","","","","","","","","","","","","","","","","feedback_test","",""
"","","","","","html-keyboard-response","204","369348","0.0-9.0-0.0-0.0-1.0","6104","<style>.context{color:white; font-size: 35px; line-height:40px}</style>                          <div><p class='context'>您正确回答了92% 的试次。</p><p class='context'>您的平均反应时为666毫秒。</p><p class='context'>请按任意键进入休息</p></div>","arrowright","","","","","","","","","","","","","","","","","","","","","","","","","","",""
"","","","","","html-button-response","205","374483","0.0-9.0-0.0-0.0-2.0","5134","
                    <p>知觉匹配任务中，您还剩余4组实验</p>
                    <p>现在是休息时间，当您结束休息后，您可以点击 结束休息 按钮 继续</p>
                    <p>建议休息时间还剩余<span id=""iii"">60</span>秒</p>","0","","","","","","","","","","","","","","","","","","","","","","","","","","",""
"","","","","","psychophysics","206","376271","0.0-9.0-0.0-0.0-0.1-0.72","787","","arrowleft","","","","","","","","","","","","","key","arrowleft","6.942187499999818","960","536","arrowleft","true","../../test_img/25.png","生人","matching_task","朋友","[""<img src=\""../../test_img/12.png\"" width=150 style=\""vertical-align:middle\"">---生人"",""<img src=\""../../test_img/19.png\"" width=150 style=\""vertical-align:middle\"">---自我"",""<img src=\""../../test_img/25.png\"" width=150 style=\""vertical-align:middle\"">---朋友""]","","",""
"","","","","","html-keyboard-response","207","376776","0.0-9.0-0.0-0.0-0.1-1.72","null","<span style='color:GreenYellow; font-size: 70px;'>正确! </span>","null","","","","","","","","","","","","","","","","","","","","","","","","","feedback_test","",""
"","","","","","psychophysics","208","378435","0.0-9.0-0.0-0.0-0.1-0.73","659","","arrowright","","","","","","","","","","","","","key","arrowright","6.939662447257433","960","536","arrowright","true","../../test_img/12.png","生人","matching_task","生人","[""<img src=\""../../test_img/12.png\"" width=150 style=\""vertical-align:middle\"">---生人"",""<img src=\""../../test_img/19.png\"" width=150 style=\""vertical-align:middle\"">---自我"",""<img src=\""../../test_img/25.png\"" width=150 style=\""vertical-align:middle\"">---朋友""]","","",""
"","","","","","html-keyboard-response","209","378938","0.0-9.0-0.0-0.0-0.1-1.73","null","<span style='color:GreenYellow; font-size: 70px;'>正确! </span>","null","","","","","","","","","","","","","","","","","","","","","","","","","feedback_test","",""
"","","","","","psychophysics","210","380524","0.0-9.0-0.0-0.0-0.1-0.74","585","","arrowright","","","","","","","","","","","","","key","arrowright","6.946017699114993","960","536","arrowleft","false","../../test_img/19.png","生人","matching_task","自我","[""<img src=\""../../test_img/12.png\"" width=150 style=\""vertical-align:middle\"">---生人"",""<img src=\""../../test_img/19.png\"" width=150 style=\""vertical-align:middle\"">---自我"",""<img src=\""../../test_img/25.png\"" width=150 style=\""vertical-align:middle\"">---朋友""]","","",""
"","","","","","html-keyboard-response","211","381034","0.0-9.0-0.0-0.0-0.1-1.74","null","<span style='color:red; font-size: 70px;'>错误! </span>","null","","","","","","","","","","","","","","","","","","","","","","","","","feedback_test","",""
"","","","","","psychophysics","212","382568","0.0-9.0-0.0-0.0-0.1-0.75","527","","arrowright","","","","","","","","","","","","","key","arrowright","6.945662100456515","960","536","arrowright","true","../../test_img/19.png","自我","matching_task","自我","[""<img src=\""../../test_img/12.png\"" width=150 style=\""vertical-align:middle\"">---生人"",""<img src=\""../../test_img/19.png\"" width=150 style=\""vertical-align:middle\"">---自我"",""<img src=\""../../test_img/25.png\"" width=150 style=\""vertical-align:middle\"">---朋友""]","","",""
"","","","","","html-keyboard-response","213","383077","0.0-9.0-0.0-0.0-0.1-1.75","null","<span style='color:GreenYellow; font-size: 70px;'>正确! </span>","null","","","","","","","","","","","","","","","","","","","","","","","","","feedback_test","",""
"","","","","","psychophysics","214","384656","0.0-9.0-0.0-0.0-0.1-0.76","573","","arrowright","","","","","","","","","","","","","key","arrowright","6.943805309734461","960","536","arrowright","true","../../test_img/19.png","自我","matching_task","自我","[""<img src=\""../../test_img/12.png\"" width=150 style=\""vertical-align:middle\"">---生人"",""<img src=\""../../test_img/19.png\"" width=150 style=\""vertical-align:middle\"">---自我"",""<img src=\""../../test_img/25.png\"" width=150 style=\""vertical-align:middle\"">---朋友""]","","",""
"","","","","","html-keyboard-response","215","385168","0.0-9.0-0.0-0.0-0.1-1.76","null","<span style='color:GreenYellow; font-size: 70px;'>正确! </span>","null","","","","","","","","","","","","","","","","","","","","","","","","","feedback_test","",""
"","","","","","psychophysics","216","386886","0.0-9.0-0.0-0.0-0.1-0.77","710","","arrowleft","","","","","","","","","","","","","key","arrowleft","6.945934959349641","960","536","arrowleft","true","../../test_img/12.png","朋友","matching_task","生人","[""<img src=\""../../test_img/12.png\"" width=150 style=\""vertical-align:middle\"">---生人"",""<img src=\""../../test_img/19.png\"" width=150 style=\""vertical-align:middle\"">---自我"",""<img src=\""../../test_img/25.png\"" width=150 style=\""vertical-align:middle\"">---朋友""]","","",""
"","","","","","html-keyboard-response","217","387395","0.0-9.0-0.0-0.0-0.1-1.77","null","<span style='color:GreenYellow; font-size: 70px;'>正确! </span>","null","","","","","","","","","","","","","","","","","","","","","","","","","feedback_test","",""
"","","","","","psychophysics","218","388970","0.0-9.0-0.0-0.0-0.1-0.78","574","","arrowright","","","","","","","","","","","","","key","arrowright","6.943111111111163","960","536","arrowright","true","../../test_img/25.png","朋友","matching_task","朋友","[""<img src=\""../../test_img/12.png\"" width=150 style=\""vertical-align:middle\"">---生人"",""<img src=\""../../test_img/19.png\"" width=150 style=\""vertical-align:middle\"">---自我"",""<img src=\""../../test_img/25.png\"" width=150 style=\""vertical-align:middle\"">---朋友""]","","",""
"","","","","","html-keyboard-response","219","389486","0.0-9.0-0.0-0.0-0.1-1.78","null","<span style='color:GreenYellow; font-size: 70px;'>正确! </span>","null","","","","","","","","","","","","","","","","","","","","","","","","","feedback_test","",""
"","","","","","psychophysics","220","391228","0.0-9.0-0.0-0.0-0.1-0.79","741","","arrowleft","","","","","","","","","","","","","key","arrowleft","6.940160642570421","960","536","arrowleft","true","../../test_img/19.png","朋友","matching_task","自我","[""<img src=\""../../test_img/12.png\"" width=150 style=\""vertical-align:middle\"">---生人"",""<img src=\""../../test_img/19.png\"" width=150 style=\""vertical-align:middle\"">---自我"",""<img src=\""../../test_img/25.png\"" width=150 style=\""vertical-align:middle\"">---朋友""]","","",""
"","","","","","html-keyboard-response","221","391730","0.0-9.0-0.0-0.0-0.1-1.79","null","<span style='color:GreenYellow; font-size: 70px;'>正确! </span>","null","","","","","","","","","","","","","","","","","","","","","","","","","feedback_test","",""
"","","","","","psychophysics","222","393342","0.0-9.0-0.0-0.0-0.1-0.80","610","","arrowleft","","","","","","","","","","","","","key","arrowleft","6.945652173913044","960","536","arrowleft","true","../../test_img/12.png","自我","matching_task","生人","[""<img src=\""../../test_img/12.png\"" width=150 style=\""vertical-align:middle\"">---生人"",""<img src=\""../../test_img/19.png\"" width=150 style=\""vertical-align:middle\"">---自我"",""<img src=\""../../test_img/25.png\"" width=150 style=\""vertical-align:middle\"">---朋友""]","","",""
"","","","","","html-keyboard-response","223","393853","0.0-9.0-0.0-0.0-0.1-1.80","null","<span style='color:GreenYellow; font-size: 70px;'>正确! </span>","null","","","","","","","","","","","","","","","","","","","","","","","","","feedback_test","",""
"","","","","","psychophysics","224","395367","0.0-9.0-0.0-0.0-0.1-0.81","512","","arrowright","","","","","","","","","","","","","key","arrowright","6.945161290322473","960","536","arrowright","true","../../test_img/12.png","生人","matching_task","生人","[""<img src=\""../../test_img/12.png\"" width=150 style=\""vertical-align:middle\"">---生人"",""<img src=\""../../test_img/19.png\"" width=150 style=\""vertical-align:middle\"">---自我"",""<img src=\""../../test_img/25.png\"" width=150 style=\""vertical-align:middle\"">---朋友""]","","",""
"","","","","","html-keyboard-response","225","395874","0.0-9.0-0.0-0.0-0.1-1.81","null","<span style='color:GreenYellow; font-size: 70px;'>正确! </span>","null","","","","","","","","","","","","","","","","","","","","","","","","","feedback_test","",""
"","","","","","psychophysics","226","397646","0.0-9.0-0.0-0.0-0.1-0.82","771","","arrowleft","","","","","","","","","","","","","key","arrowleft","6.945059288537688","960","536","arrowleft","true","../../test_img/25.png","自我","matching_task","朋友","[""<img src=\""../../test_img/12.png\"" width=150 style=\""vertical-align:middle\"">---生人"",""<img src=\""../../test_img/19.png\"" width=150 style=\""vertical-align:middle\"">---自我"",""<img src=\""../../test_img/25.png\"" width=150 style=\""vertical-align:middle\"">---朋友""]","","",""
"","","","","","html-keyboard-response","227","398152","0.0-9.0-0.0-0.0-0.1-1.82","null","<span style='color:GreenYellow; font-size: 70px;'>正确! </span>","null","","","","","","","","","","","","","","","","","","","","","","","","","feedback_test","",""
"","","","","","psychophysics","228","399723","0.0-9.0-0.0-0.0-0.1-0.83","569","","arrowright","","","","","","","","","","","","","key","arrowright","6.944843049327407","960","536","arrowright","true","../../test_img/25.png","朋友","matching_task","朋友","[""<img src=\""../../test_img/12.png\"" width=150 style=\""vertical-align:middle\"">---生人"",""<img src=\""../../test_img/19.png\"" width=150 style=\""vertical-align:middle\"">---自我"",""<img src=\""../../test_img/25.png\"" width=150 style=\""vertical-align:middle\"">---朋友""]","","",""
"","","","","","html-keyboard-response","229","400235","0.0-9.0-0.0-0.0-0.1-1.83","null","<span style='color:GreenYellow; font-size: 70px;'>正确! </span>","null","","","","","","","","","","","","","","","","","","","","","","","","","feedback_test","",""
"","","","","","psychophysics","230","401835","0.0-9.0-0.0-0.0-0.1-0.84","598","","arrowleft","","","","","","","","","","","","","key","arrowleft","6.9451754385964914","960","536","arrowleft","true","../../test_img/12.png","自我","matching_task","生人","[""<img src=\""../../test_img/12.png\"" width=150 style=\""vertical-align:middle\"">---生人"",""<img src=\""../../test_img/19.png\"" width=150 style=\""vertical-align:middle\"">---自我"",""<img src=\""../../test_img/25.png\"" width=150 style=\""vertical-align:middle\"">---朋友""]","","",""
"","","","","","html-keyboard-response","231","402340","0.0-9.0-0.0-0.0-0.1-1.84","null","<span style='color:GreenYellow; font-size: 70px;'>正确! </span>","null","","","","","","","","","","","","","","","","","","","","","","","","","feedback_test","",""
"","","","","","psychophysics","232","404096","0.0-9.0-0.0-0.0-0.1-0.85","753","","arrowleft","","","","","","","","","","","","","key","arrowleft","6.944444444444445","960","536","arrowleft","true","../../test_img/25.png","生人","matching_task","朋友","[""<img src=\""../../test_img/12.png\"" width=150 style=\""vertical-align:middle\"">---生人"",""<img src=\""../../test_img/19.png\"" width=150 style=\""vertical-align:middle\"">---自我"",""<img src=\""../../test_img/25.png\"" width=150 style=\""vertical-align:middle\"">---朋友""]","","",""
"","","","","","html-keyboard-response","233","404597","0.0-9.0-0.0-0.0-0.1-1.85","null","<span style='color:GreenYellow; font-size: 70px;'>正确! </span>","null","","","","","","","","","","","","","","","","","","","","","","","","","feedback_test","",""
"","","","","","psychophysics","234","406192","0.0-9.0-0.0-0.0-0.1-0.86","593","","arrowright","","","","","","","","","","","","","key","arrowright","6.9449339207048455","960","536","arrowright","true","../../test_img/12.png","生人","matching_task","生人","[""<img src=\""../../test_img/12.png\"" width=150 style=\""vertical-align:middle\"">---生人"",""<img src=\""../../test_img/19.png\"" width=150 style=\""vertical-align:middle\"">---自我"",""<img src=\""../../test_img/25.png\"" width=150 style=\""vertical-align:middle\"">---朋友""]","","",""
"","","","","","html-keyboard-response","235","406701","0.0-9.0-0.0-0.0-0.1-1.86","null","<span style='color:GreenYellow; font-size: 70px;'>正确! </span>","null","","","","","","","","","","","","","","","","","","","","","","","","","feedback_test","",""
"","","","","","psychophysics","236","408511","0.0-9.0-0.0-0.0-0.1-0.87","807","","arrowleft","","","","","","","","","","","","","key","arrowleft","6.9455598455597105","960","536","arrowleft","true","../../test_img/25.png","自我","matching_task","朋友","[""<img src=\""../../test_img/12.png\"" width=150 style=\""vertical-align:middle\"">---生人"",""<img src=\""../../test_img/19.png\"" width=150 style=\""vertical-align:middle\"">---自我"",""<img src=\""../../test_img/25.png\"" width=150 style=\""vertical-align:middle\"">---朋友""]","","",""
"","","","","","html-keyboard-response","237","409023","0.0-9.0-0.0-0.0-0.1-1.87","null","<span style='color:GreenYellow; font-size: 70px;'>正确! </span>","null","","","","","","","","","","","","","","","","","","","","","","","","","feedback_test","",""
"","","","","","psychophysics","238","411217","0.0-9.0-0.0-0.0-0.1-0.88","1190","","arrowleft","","","","","","","","","","","","","key","arrowleft","6.945222929936269","960","536","arrowleft","true","../../test_img/12.png","朋友","matching_task","生人","[""<img src=\""../../test_img/12.png\"" width=150 style=\""vertical-align:middle\"">---生人"",""<img src=\""../../test_img/19.png\"" width=150 style=\""vertical-align:middle\"">---自我"",""<img src=\""../../test_img/25.png\"" width=150 style=\""vertical-align:middle\"">---朋友""]","","",""
"","","","","","html-keyboard-response","239","411731","0.0-9.0-0.0-0.0-0.1-1.88","null","<span style='color:GreenYellow; font-size: 70px;'>正确! </span>","null","","","","","","","","","","","","","","","","","","","","","","","","","feedback_test","",""
"","","","","","psychophysics","240","413526","0.0-9.0-0.0-0.0-0.1-0.89","793","","arrowleft","","","","","","","","","","","","","key","arrowleft","6.94396887159524","960","536","arrowleft","true","../../test_img/19.png","生人","matching_task","自我","[""<img src=\""../../test_img/12.png\"" width=150 style=\""vertical-align:middle\"">---生人"",""<img src=\""../../test_img/19.png\"" width=150 style=\""vertical-align:middle\"">---自我"",""<img src=\""../../test_img/25.png\"" width=150 style=\""vertical-align:middle\"">---朋友""]","","",""
"","","","","","html-keyboard-response","241","414031","0.0-9.0-0.0-0.0-0.1-1.89","null","<span style='color:GreenYellow; font-size: 70px;'>正确! </span>","null","","","","","","","","","","","","","","","","","","","","","","","","","feedback_test","",""
"","","","","","psychophysics","242","415869","0.0-9.0-0.0-0.0-0.1-0.90","832","","arrowleft","","","","","","","","","","","","","key","arrowleft","6.9452471482888845","960","536","arrowleft","true","../../test_img/19.png","朋友","matching_task","自我","[""<img src=\""../../test_img/12.png\"" width=150 style=\""vertical-align:middle\"">---生人"",""<img src=\""../../test_img/19.png\"" width=150 style=\""vertical-align:middle\"">---自我"",""<img src=\""../../test_img/25.png\"" width=150 style=\""vertical-align:middle\"">---朋友""]","","",""
"","","","","","html-keyboard-response","243","416375","0.0-9.0-0.0-0.0-0.1-1.90","null","<span style='color:GreenYellow; font-size: 70px;'>正确! </span>","null","","","","","","","","","","","","","","","","","","","","","","","","","feedback_test","",""
"","","","","","psychophysics","244","418146","0.0-9.0-0.0-0.0-0.1-0.91","768","","arrowright","","","","","","","","","","","","","key","arrowright","6.9454545454545915","960","536","arrowright","true","../../test_img/12.png","生人","matching_task","生人","[""<img src=\""../../test_img/12.png\"" width=150 style=\""vertical-align:middle\"">---生人"",""<img src=\""../../test_img/19.png\"" width=150 style=\""vertical-align:middle\"">---自我"",""<img src=\""../../test_img/25.png\"" width=150 style=\""vertical-align:middle\"">---朋友""]","","",""
"","","","","","html-keyboard-response","245","418651","0.0-9.0-0.0-0.0-0.1-1.91","null","<span style='color:GreenYellow; font-size: 70px;'>正确! </span>","null","","","","","","","","","","","","","","","","","","","","","","","","","feedback_test","",""
"","","","","","psychophysics","246","420286","0.0-9.0-0.0-0.0-0.1-0.92","630","","arrowright","","","","","","","","","","","","","key","arrowright","6.94549356223196","960","536","arrowright","true","../../test_img/25.png","朋友","matching_task","朋友","[""<img src=\""../../test_img/12.png\"" width=150 style=\""vertical-align:middle\"">---生人"",""<img src=\""../../test_img/19.png\"" width=150 style=\""vertical-align:middle\"">---自我"",""<img src=\""../../test_img/25.png\"" width=150 style=\""vertical-align:middle\"">---朋友""]","","",""
"","","","","","html-keyboard-response","247","420790","0.0-9.0-0.0-0.0-0.1-1.92","null","<span style='color:GreenYellow; font-size: 70px;'>正确! </span>","null","","","","","","","","","","","","","","","","","","","","","","","","","feedback_test","",""
"","","","","","psychophysics","248","422495","0.0-9.0-0.0-0.0-0.1-0.93","700","","arrowright","","","","","","","","","","","","","key","arrowright","6.945081967213258","960","536","arrowright","true","../../test_img/25.png","朋友","matching_task","朋友","[""<img src=\""../../test_img/12.png\"" width=150 style=\""vertical-align:middle\"">---生人"",""<img src=\""../../test_img/19.png\"" width=150 style=\""vertical-align:middle\"">---自我"",""<img src=\""../../test_img/25.png\"" width=150 style=\""vertical-align:middle\"">---朋友""]","","",""
"","","","","","html-keyboard-response","249","422999","0.0-9.0-0.0-0.0-0.1-1.93","null","<span style='color:GreenYellow; font-size: 70px;'>正确! </span>","null","","","","","","","","","","","","","","","","","","","","","","","","","feedback_test","",""
"","","","","","psychophysics","250","424646","0.0-9.0-0.0-0.0-0.1-0.94","642","","arrowright","","","","","","","","","","","","","key","arrowright","6.945106382978624","960","536","arrowright","true","../../test_img/19.png","自我","matching_task","自我","[""<img src=\""../../test_img/12.png\"" width=150 style=\""vertical-align:middle\"">---生人"",""<img src=\""../../test_img/19.png\"" width=150 style=\""vertical-align:middle\"">---自我"",""<img src=\""../../test_img/25.png\"" width=150 style=\""vertical-align:middle\"">---朋友""]","","",""
"","","","","","html-keyboard-response","251","425161","0.0-9.0-0.0-0.0-0.1-1.94","null","<span style='color:GreenYellow; font-size: 70px;'>正确! </span>","null","","","","","","","","","","","","","","","","","","","","","","","","","feedback_test","",""
"","","","","","psychophysics","252","426889","0.0-9.0-0.0-0.0-0.1-0.95","725","","arrowright","","","","","","","","","","","","","key","arrowright","6.945344129554656","960","536","arrowright","true","../../test_img/19.png","自我","matching_task","自我","[""<img src=\""../../test_img/12.png\"" width=150 style=\""vertical-align:middle\"">---生人"",""<img src=\""../../test_img/19.png\"" width=150 style=\""vertical-align:middle\"">---自我"",""<img src=\""../../test_img/25.png\"" width=150 style=\""vertical-align:middle\"">---朋友""]","","",""
"","","","","","html-keyboard-response","253","427391","0.0-9.0-0.0-0.0-0.1-1.95","null","<span style='color:GreenYellow; font-size: 70px;'>正确! </span>","null","","","","","","","","","","","","","","","","","","","","","","","","","feedback_test","",""
"","","","","","psychophysics","254","429018","0.0-9.0-0.0-0.0-0.1-0.96","624","","arrowleft","","","","","","","","","","","","","key","arrowleft","6.94549356223171","960","536","arrowleft","true","../../test_img/19.png","生人","matching_task","自我","[""<img src=\""../../test_img/12.png\"" width=150 style=\""vertical-align:middle\"">---生人"",""<img src=\""../../test_img/19.png\"" width=150 style=\""vertical-align:middle\"">---自我"",""<img src=\""../../test_img/25.png\"" width=150 style=\""vertical-align:middle\"">---朋友""]","","",""
"","","","","","html-keyboard-response","255","429524","0.0-9.0-0.0-0.0-0.1-1.96","null","<span style='color:GreenYellow; font-size: 70px;'>正确! </span>","null","","","","","","","","","","","","","","","","","","","","","","","","","feedback_test","",""
"","","","","","psychophysics","256","431463","0.0-9.0-0.0-0.0-0.1-0.97","937","","arrowleft","","","","","","","","","","","","","key","arrowleft","6.9449640287770205","960","536","arrowleft","true","../../test_img/19.png","朋友","matching_task","自我","[""<img src=\""../../test_img/12.png\"" width=150 style=\""vertical-align:middle\"">---生人"",""<img src=\""../../test_img/19.png\"" width=150 style=\""vertical-align:middle\"">---自我"",""<img src=\""../../test_img/25.png\"" width=150 style=\""vertical-align:middle\"">---朋友""]","","",""
