"success","timeout","failed_images","failed_audio","failed_video","trial_type","trial_index","time_elapsed","internal_node_id","rt","stimulus","response","value","item_width_mm","item_height_mm","item_width_px","px2mm","view_dist_mm","item_width_deg","px2deg","scale_factor","win_width_deg","win_height_deg","view_history","response_type","key_press","avg_frame_time","center_x","center_y","correct_response","correct","Image","word","condition","shape","association","screen_id","LeftLable","RightLable"
"true","false","[]","[]","[]","preload","0","363","0.0-0.0","","","","","","","","","","","","","","","","","","","","","","","","","","","","","",""
"","","","","","html-keyboard-response","1","125970","0.0-1.0","125607","
     <p>您好，欢迎参加本次实验。</p>
     <p>为充分保障您的权利，请确保您已经知晓并同意《参与实验同意书》以及《数据公开知情同意书》。</p>
     <p>如果您未见过上述内容，请咨询实验员。</p>
     <p>如果您选择继续实验，则表示您已经清楚两份知情同意书的内容并同意。</p>
     <p> <div style = ""color: green""><按任意键至下页></div> </p>
     "," ","","","","","","","","","","","","","","","","","","","","","","","","","","",""
"","","","","","html-keyboard-response","2","127947","0.0-2.0","1977","
     <p>本实验首先需要您填写一些基本个人信息。</p>
     <p> <div style = ""color: green""><按任意键至下页></div></p>
     "," ","","","","","","","","","","","","","","","","","","","","","","","","","","",""
"","","","","","call-function","3","127948","0.0-3.0-0.0","","","","","","","","","","","","","","","","","","","","","","","","","","","","","",""
"","","","","","survey-html-form","4","132707","0.0-3.0-1.0","4753","","{""Q0"":""17""}","","","","","","","","","","","","","","","","","","","","","","","","","","",""
"","","","","","html-button-response","5","133652","0.0-3.0-2.0","943","<p style = 'color : white'>您的性别</p>","1","","","","","","","","","","","","","","","","","","","","","","","","","","",""
"","","","","","survey-html-form","6","138775","0.0-3.0-3.0","5122","","{""Q0"":""2001""}","","","","","","","","","","","","","","","","","","","","","","","","","","",""
"","","","","","survey-html-form","7","141272","0.0-3.0-4.0","2496","","{""Q0"":""6""}","","","","","","","","","","","","","","","","","","","","","","","","","","",""
"","","","","","virtual-chinrest","8","362597","0.0-4.0","221323","","","","85.6","53.98","475.451915680165","5.551087811344334","514.59","9.5090383136033","50","0.8034461265205423","25.04","14.32","","","","","","","","","","","","","","","",""
"true","","","","","fullscreen","9","378594","0.0-5.0","","","","","","","","","","","","","","","","","","","","","","","","","","","","","",""
"","","","","","instructions","10","426215","0.0-6.0","47620","","","","","","","","","","","","","","[{""page_index"":0,""viewing_time"":7615},{""page_index"":1,""viewing_time"":8506},{""page_index"":2,""viewing_time"":20857},{""page_index"":3,""viewing_time"":4950},{""page_index"":4,""viewing_time"":5691}]","","","","","","","","","","","","","","",""
"","","","","","psychophysics","11","428534","0.0-7.0-0.0-0.0","1316","","arrowright","","","","","","","","","","","","","key","arrowright","16.667391304347657","630","416","arrowright","true","../../test_img/26.png","自我","prac_matching_task","自我","[""<img src=\""../../test_img/15.png\"" width=150 style=\""vertical-align:middle\"">---生人"",""<img src=\""../../test_img/26.png\"" width=150 style=\""vertical-align:middle\"">---自我"",""<img src=\""../../test_img/22.png\"" width=150 style=\""vertical-align:middle\"">---朋友""]","","",""
"","","","","","html-keyboard-response","12","428846","0.0-7.0-0.0-1.0","null","<span style='color:GreenYellow; font-size: 70px;'>正确! </span>","null","","","","","","","","","","","","","","","","","","","","","","","","","feedback_test","",""
"","","","","","psychophysics","13","430506","0.0-7.0-0.0-0.1","656","","arrowright","","","","","","","","","","","","","key","arrowright","16.667346938775154","630","416","arrowright","true","../../test_img/26.png","自我","prac_matching_task","自我","[""<img src=\""../../test_img/15.png\"" width=150 style=\""vertical-align:middle\"">---生人"",""<img src=\""../../test_img/26.png\"" width=150 style=\""vertical-align:middle\"">---自我"",""<img src=\""../../test_img/22.png\"" width=150 style=\""vertical-align:middle\"">---朋友""]","","",""
"","","","","","html-keyboard-response","14","430809","0.0-7.0-0.0-1.1","null","<span style='color:GreenYellow; font-size: 70px;'>正确! </span>","null","","","","","","","","","","","","","","","","","","","","","","","","","feedback_test","",""
"","","","","","psychophysics","15","432871","0.0-7.0-0.0-0.2","1056","","arrowleft","","","","","","","","","","","","","key","arrowleft","16.667479674797033","630","416","arrowright","false","../../test_img/15.png","生人","prac_matching_task","生人","[""<img src=\""../../test_img/15.png\"" width=150 style=\""vertical-align:middle\"">---生人"",""<img src=\""../../test_img/26.png\"" width=150 style=\""vertical-align:middle\"">---自我"",""<img src=\""../../test_img/22.png\"" width=150 style=\""vertical-align:middle\"">---朋友""]","","",""
"","","","","","html-keyboard-response","16","433184","0.0-7.0-0.0-1.2","null","<span style='color:red; font-size: 70px;'>错误! </span>","null","","","","","","","","","","","","","","","","","","","","","","","","","feedback_test","",""
"","","","","","psychophysics","17","434900","0.0-7.0-0.0-0.3","714","","arrowleft","","","","","","","","","","","","","key","arrowleft","16.667326732673498","630","416","arrowright","false","../../test_img/15.png","生人","prac_matching_task","生人","[""<img src=\""../../test_img/15.png\"" width=150 style=\""vertical-align:middle\"">---生人"",""<img src=\""../../test_img/26.png\"" width=150 style=\""vertical-align:middle\"">---自我"",""<img src=\""../../test_img/22.png\"" width=150 style=\""vertical-align:middle\"">---朋友""]","","",""
"","","","","","html-keyboard-response","18","435213","0.0-7.0-0.0-1.3","null","<span style='color:red; font-size: 70px;'>错误! </span>","null","","","","","","","","","","","","","","","","","","","","","","","","","feedback_test","",""
"","","","","","psychophysics","19","437166","0.0-7.0-0.0-0.4","949","","arrowright","","","","","","","","","","","","","key","arrowright","16.666956521738726","630","416","arrowright","true","../../test_img/22.png","朋友","prac_matching_task","朋友","[""<img src=\""../../test_img/15.png\"" width=150 style=\""vertical-align:middle\"">---生人"",""<img src=\""../../test_img/26.png\"" width=150 style=\""vertical-align:middle\"">---自我"",""<img src=\""../../test_img/22.png\"" width=150 style=\""vertical-align:middle\"">---朋友""]","","",""
"","","","","","html-keyboard-response","20","437475","0.0-7.0-0.0-1.4","null","<span style='color:GreenYellow; font-size: 70px;'>正确! </span>","null","","","","","","","","","","","","","","","","","","","","","","","","","feedback_test","",""
"","","","","","psychophysics","21","439495","0.0-7.0-0.0-0.5","1010","","arrowleft","","","","","","","","","","","","","key","arrowleft","16.664705882352745","630","416","arrowleft","true","../../test_img/26.png","朋友","prac_matching_task","自我","[""<img src=\""../../test_img/15.png\"" width=150 style=\""vertical-align:middle\"">---生人"",""<img src=\""../../test_img/26.png\"" width=150 style=\""vertical-align:middle\"">---自我"",""<img src=\""../../test_img/22.png\"" width=150 style=\""vertical-align:middle\"">---朋友""]","","",""
"","","","","","html-keyboard-response","22","439809","0.0-7.0-0.0-1.5","null","<span style='color:GreenYellow; font-size: 70px;'>正确! </span>","null","","","","","","","","","","","","","","","","","","","","","","","","","feedback_test","",""
"","","","","","psychophysics","23","441860","0.0-7.0-0.0-0.6","1043","","arrowleft","","","","","","","","","","","","","key","arrowleft","16.667213114753814","630","416","arrowleft","true","../../test_img/15.png","自我","prac_matching_task","生人","[""<img src=\""../../test_img/15.png\"" width=150 style=\""vertical-align:middle\"">---生人"",""<img src=\""../../test_img/26.png\"" width=150 style=\""vertical-align:middle\"">---自我"",""<img src=\""../../test_img/22.png\"" width=150 style=\""vertical-align:middle\"">---朋友""]","","",""
"","","","","","html-keyboard-response","24","442176","0.0-7.0-0.0-1.6","null","<span style='color:GreenYellow; font-size: 70px;'>正确! </span>","null","","","","","","","","","","","","","","","","","","","","","","","","","feedback_test","",""
"","","","","","psychophysics","25","443845","0.0-7.0-0.0-0.7","662","","arrowright","","","","","","","","","","","","","key","arrowright","16.6656565656568","630","416","arrowright","true","../../test_img/22.png","朋友","prac_matching_task","朋友","[""<img src=\""../../test_img/15.png\"" width=150 style=\""vertical-align:middle\"">---生人"",""<img src=\""../../test_img/26.png\"" width=150 style=\""vertical-align:middle\"">---自我"",""<img src=\""../../test_img/22.png\"" width=150 style=\""vertical-align:middle\"">---朋友""]","","",""
"","","","","","html-keyboard-response","26","444156","0.0-7.0-0.0-1.7","null","<span style='color:GreenYellow; font-size: 70px;'>正确! </span>","null","","","","","","","","","","","","","","","","","","","","","","","","","feedback_test","",""
"","","","","","psychophysics","27","445925","0.0-7.0-0.0-0.8","763","","arrowright","","","","","","","","","","","","","key","arrowright","16.667619047618825","630","416","arrowleft","false","../../test_img/22.png","自我","prac_matching_task","朋友","[""<img src=\""../../test_img/15.png\"" width=150 style=\""vertical-align:middle\"">---生人"",""<img src=\""../../test_img/26.png\"" width=150 style=\""vertical-align:middle\"">---自我"",""<img src=\""../../test_img/22.png\"" width=150 style=\""vertical-align:middle\"">---朋友""]","","",""
"","","","","","html-keyboard-response","28","446230","0.0-7.0-0.0-1.8","null","<span style='color:red; font-size: 70px;'>错误! </span>","null","","","","","","","","","","","","","","","","","","","","","","","","","feedback_test","",""
"","","","","","psychophysics","29","448467","0.0-7.0-0.0-0.9","1232","","arrowleft","","","","","","","","","","","","","key","arrowleft","16.667424242424065","630","416","arrowleft","true","../../test_img/22.png","生人","prac_matching_task","朋友","[""<img src=\""../../test_img/15.png\"" width=150 style=\""vertical-align:middle\"">---生人"",""<img src=\""../../test_img/26.png\"" width=150 style=\""vertical-align:middle\"">---自我"",""<img src=\""../../test_img/22.png\"" width=150 style=\""vertical-align:middle\"">---朋友""]","","",""
"","","","","","html-keyboard-response","30","448779","0.0-7.0-0.0-1.9","null","<span style='color:GreenYellow; font-size: 70px;'>正确! </span>","null","","","","","","","","","","","","","","","","","","","","","","","","","feedback_test","",""
"","","","","","psychophysics","31","450800","0.0-7.0-0.0-0.10","1016","","arrowleft","","","","","","","","","","","","","key","arrowleft","16.666386554621752","630","416","arrowleft","true","../../test_img/15.png","朋友","prac_matching_task","生人","[""<img src=\""../../test_img/15.png\"" width=150 style=\""vertical-align:middle\"">---生人"",""<img src=\""../../test_img/26.png\"" width=150 style=\""vertical-align:middle\"">---自我"",""<img src=\""../../test_img/22.png\"" width=150 style=\""vertical-align:middle\"">---朋友""]","","",""
"","","","","","html-keyboard-response","32","451108","0.0-7.0-0.0-1.10","null","<span style='color:GreenYellow; font-size: 70px;'>正确! </span>","null","","","","","","","","","","","","","","","","","","","","","","","","","feedback_test","",""
"","","","","","psychophysics","33","452779","0.0-7.0-0.0-0.11","664","","arrowleft","","","","","","","","","","","","","key","arrowleft","16.668367346938776","630","416","arrowleft","true","../../test_img/26.png","生人","prac_matching_task","自我","[""<img src=\""../../test_img/15.png\"" width=150 style=\""vertical-align:middle\"">---生人"",""<img src=\""../../test_img/26.png\"" width=150 style=\""vertical-align:middle\"">---自我"",""<img src=\""../../test_img/22.png\"" width=150 style=\""vertical-align:middle\"">---朋友""]","","",""
"","","","","","html-keyboard-response","34","453091","0.0-7.0-0.0-1.11","null","<span style='color:GreenYellow; font-size: 70px;'>正确! </span>","null","","","","","","","","","","","","","","","","","","","","","","","","","feedback_test","",""
"","","","","","psychophysics","35","455059","0.0-7.0-0.0-0.12","958","","arrowright","","","","","","","","","","","","","key","arrowright","16.675213675213676","630","416","arrowright","true","../../test_img/15.png","生人","prac_matching_task","生人","[""<img src=\""../../test_img/15.png\"" width=150 style=\""vertical-align:middle\"">---生人"",""<img src=\""../../test_img/26.png\"" width=150 style=\""vertical-align:middle\"">---自我"",""<img src=\""../../test_img/22.png\"" width=150 style=\""vertical-align:middle\"">---朋友""]","","",""
"","","","","","html-keyboard-response","36","455361","0.0-7.0-0.0-1.12","null","<span style='color:GreenYellow; font-size: 70px;'>正确! </span>","null","","","","","","","","","","","","","","","","","","","","","","","","","feedback_test","",""
"","","","","","psychophysics","37","457102","0.0-7.0-0.0-0.13","736","","arrowright","","","","","","","","","","","","","key","arrowright","16.666990291261683","630","416","arrowright","true","../../test_img/15.png","生人","prac_matching_task","生人","[""<img src=\""../../test_img/15.png\"" width=150 style=\""vertical-align:middle\"">---生人"",""<img src=\""../../test_img/26.png\"" width=150 style=\""vertical-align:middle\"">---自我"",""<img src=\""../../test_img/22.png\"" width=150 style=\""vertical-align:middle\"">---朋友""]","","",""
"","","","","","html-keyboard-response","38","457417","0.0-7.0-0.0-1.13","null","<span style='color:GreenYellow; font-size: 70px;'>正确! </span>","null","","","","","","","","","","","","","","","","","","","","","","","","","feedback_test","",""
"","","","","","psychophysics","39","459228","0.0-7.0-0.0-0.14","806","","arrowright","","","","","","","","","","","","","key","arrowright","16.667289719625842","630","416","arrowright","true","../../test_img/26.png","自我","prac_matching_task","自我","[""<img src=\""../../test_img/15.png\"" width=150 style=\""vertical-align:middle\"">---生人"",""<img src=\""../../test_img/26.png\"" width=150 style=\""vertical-align:middle\"">---自我"",""<img src=\""../../test_img/22.png\"" width=150 style=\""vertical-align:middle\"">---朋友""]","","",""
"","","","","","html-keyboard-response","40","459535","0.0-7.0-0.0-1.14","null","<span style='color:GreenYellow; font-size: 70px;'>正确! </span>","null","","","","","","","","","","","","","","","","","","","","","","","","","feedback_test","",""
"","","","","","psychophysics","41","461217","0.0-7.0-0.0-0.15","677","","arrowright","","","","","","","","","","","","","key","arrowright","16.6656565656568","630","416","arrowright","true","../../test_img/22.png","朋友","prac_matching_task","朋友","[""<img src=\""../../test_img/15.png\"" width=150 style=\""vertical-align:middle\"">---生人"",""<img src=\""../../test_img/26.png\"" width=150 style=\""vertical-align:middle\"">---自我"",""<img src=\""../../test_img/22.png\"" width=150 style=\""vertical-align:middle\"">---朋友""]","","",""
"","","","","","html-keyboard-response","42","461518","0.0-7.0-0.0-1.15","null","<span style='color:GreenYellow; font-size: 70px;'>正确! </span>","null","","","","","","","","","","","","","","","","","","","","","","","","","feedback_test","",""
"","","","","","psychophysics","43","463187","0.0-7.0-0.0-0.16","668","","arrowleft","","","","","","","","","","","","","key","arrowleft","16.666666666666668","630","416","arrowleft","true","../../test_img/15.png","朋友","prac_matching_task","生人","[""<img src=\""../../test_img/15.png\"" width=150 style=\""vertical-align:middle\"">---生人"",""<img src=\""../../test_img/26.png\"" width=150 style=\""vertical-align:middle\"">---自我"",""<img src=\""../../test_img/22.png\"" width=150 style=\""vertical-align:middle\"">---朋友""]","","",""
"","","","","","html-keyboard-response","44","463493","0.0-7.0-0.0-1.16","null","<span style='color:GreenYellow; font-size: 70px;'>正确! </span>","null","","","","","","","","","","","","","","","","","","","","","","","","","feedback_test","",""
"","","","","","psychophysics","45","465076","0.0-7.0-0.0-0.17","575","","arrowright","","","","","","","","","","","","","key","arrowright","16.66774193548362","630","416","arrowright","true","../../test_img/22.png","朋友","prac_matching_task","朋友","[""<img src=\""../../test_img/15.png\"" width=150 style=\""vertical-align:middle\"">---生人"",""<img src=\""../../test_img/26.png\"" width=150 style=\""vertical-align:middle\"">---自我"",""<img src=\""../../test_img/22.png\"" width=150 style=\""vertical-align:middle\"">---朋友""]","","",""
"","","","","","html-keyboard-response","46","465382","0.0-7.0-0.0-1.17","null","<span style='color:GreenYellow; font-size: 70px;'>正确! </span>","null","","","","","","","","","","","","","","","","","","","","","","","","","feedback_test","",""
"","","","","","psychophysics","47","467088","0.0-7.0-0.0-0.18","704","","arrowleft","","","","","","","","","","","","","key","arrowleft","16.647524752475476","630","416","arrowleft","true","../../test_img/22.png","生人","prac_matching_task","朋友","[""<img src=\""../../test_img/15.png\"" width=150 style=\""vertical-align:middle\"">---生人"",""<img src=\""../../test_img/26.png\"" width=150 style=\""vertical-align:middle\"">---自我"",""<img src=\""../../test_img/22.png\"" width=150 style=\""vertical-align:middle\"">---朋友""]","","",""
"","","","","","html-keyboard-response","48","467399","0.0-7.0-0.0-1.18","null","<span style='color:GreenYellow; font-size: 70px;'>正确! </span>","null","","","","","","","","","","","","","","","","","","","","","","","","","feedback_test","",""
"","","","","","psychophysics","49","469092","0.0-7.0-0.0-0.19","690","","arrowleft","","","","","","","","","","","","","key","arrowleft","16.66600000000035","630","416","arrowleft","true","../../test_img/26.png","生人","prac_matching_task","自我","[""<img src=\""../../test_img/15.png\"" width=150 style=\""vertical-align:middle\"">---生人"",""<img src=\""../../test_img/26.png\"" width=150 style=\""vertical-align:middle\"">---自我"",""<img src=\""../../test_img/22.png\"" width=150 style=\""vertical-align:middle\"">---朋友""]","","",""
"","","","","","html-keyboard-response","50","469396","0.0-7.0-0.0-1.19","null","<span style='color:GreenYellow; font-size: 70px;'>正确! </span>","null","","","","","","","","","","","","","","","","","","","","","","","","","feedback_test","",""
"","","","","","psychophysics","51","471045","0.0-7.0-0.0-0.20","644","","arrowleft","","","","","","","","","","","","","key","arrowleft","16.668041237113282","630","416","arrowleft","true","../../test_img/15.png","自我","prac_matching_task","生人","[""<img src=\""../../test_img/15.png\"" width=150 style=\""vertical-align:middle\"">---生人"",""<img src=\""../../test_img/26.png\"" width=150 style=\""vertical-align:middle\"">---自我"",""<img src=\""../../test_img/22.png\"" width=150 style=\""vertical-align:middle\"">---朋友""]","","",""
"","","","","","html-keyboard-response","52","471354","0.0-7.0-0.0-1.20","null","<span style='color:GreenYellow; font-size: 70px;'>正确! </span>","null","","","","","","","","","","","","","","","","","","","","","","","","","feedback_test","",""
"","","","","","psychophysics","53","473188","0.0-7.0-0.0-0.21","827","","arrowleft","","","","","","","","","","","","","key","arrowleft","16.66605504587188","630","416","arrowleft","true","../../test_img/22.png","自我","prac_matching_task","朋友","[""<img src=\""../../test_img/15.png\"" width=150 style=\""vertical-align:middle\"">---生人"",""<img src=\""../../test_img/26.png\"" width=150 style=\""vertical-align:middle\"">---自我"",""<img src=\""../../test_img/22.png\"" width=150 style=\""vertical-align:middle\"">---朋友""]","","",""
"","","","","","html-keyboard-response","54","473489","0.0-7.0-0.0-1.21","null","<span style='color:GreenYellow; font-size: 70px;'>正确! </span>","null","","","","","","","","","","","","","","","","","","","","","","","","","feedback_test","",""
"","","","","","psychophysics","55","475093","0.0-7.0-0.0-0.22","595","","arrowright","","","","","","","","","","","","","key","arrowright","16.66947368421028","630","416","arrowright","true","../../test_img/26.png","自我","prac_matching_task","自我","[""<img src=\""../../test_img/15.png\"" width=150 style=\""vertical-align:middle\"">---生人"",""<img src=\""../../test_img/26.png\"" width=150 style=\""vertical-align:middle\"">---自我"",""<img src=\""../../test_img/22.png\"" width=150 style=\""vertical-align:middle\"">---朋友""]","","",""
"","","","","","html-keyboard-response","56","475399","0.0-7.0-0.0-1.22","null","<span style='color:GreenYellow; font-size: 70px;'>正确! </span>","null","","","","","","","","","","","","","","","","","","","","","","","","","feedback_test","",""
"","","","","","psychophysics","57","477093","0.0-7.0-0.0-0.23","692","","arrowleft","","","","","","","","","","","","","key","arrowleft","16.658000000000467","630","416","arrowleft","true","../../test_img/26.png","朋友","prac_matching_task","自我","[""<img src=\""../../test_img/15.png\"" width=150 style=\""vertical-align:middle\"">---生人"",""<img src=\""../../test_img/26.png\"" width=150 style=\""vertical-align:middle\"">---自我"",""<img src=\""../../test_img/22.png\"" width=150 style=\""vertical-align:middle\"">---朋友""]","","",""
"","","","","","html-keyboard-response","58","477398","0.0-7.0-0.0-1.23","null","<span style='color:GreenYellow; font-size: 70px;'>正确! </span>","null","","","","","","","","","","","","","","","","","","","","","","","","","feedback_test","",""
"","","","","","html-keyboard-response","59","489112","0.0-8.0","11712","<style>.context{color:white; font-size: 35px; line-height:40px}</style>                          <div><p class='context'>您正确回答了88% 的试次。</p ><p class='context'>您的平均反应时为815毫秒。</p ><p class='context'>恭喜您完成练习。按任意键进入知觉匹配任务正式实验。</p ><p style = 'color:lightgreen; font-size: 35px;' >正式实验与练习要求相同，请您尽可能又快又准地进行按键反应</p><p class='footer' style='font-size: 22px; line-height:40px;'>请将您右手的<span style='color: lightgreen;'>食指与无名指</span>放在电脑键盘的相应键位上进行按键。</p >"," ","","","","","","","","","","","","","","","","","","","","","","","","","","",""
"","","","","","psychophysics","60","490813","0.0-9.0-0.0-0.0-0.0-0.0","695","","arrowleft","","","","","","","","","","","","","key","arrowleft","16.665","630","416","arrowleft","true","../../test_img/15.png","自我","matching_task","生人","[""<img src=\""../../test_img/15.png\"" width=150 style=\""vertical-align:middle\"">---生人"",""<img src=\""../../test_img/26.png\"" width=150 style=\""vertical-align:middle\"">---自我"",""<img src=\""../../test_img/22.png\"" width=150 style=\""vertical-align:middle\"">---朋友""]","","",""
"","","","","","html-keyboard-response","61","491324","0.0-9.0-0.0-0.0-0.0-1.0","null","<span style='color:GreenYellow; font-size: 70px;'>正确! </span>","null","","","","","","","","","","","","","","","","","","","","","","","","","feedback_test","",""
"","","","","","psychophysics","62","492914","0.0-9.0-0.0-0.0-0.0-0.1","584","","arrowleft","","","","","","","","","","","","","key","arrowleft","16.664893617021278","630","416","arrowleft","true","../../test_img/22.png","自我","matching_task","朋友","[""<img src=\""../../test_img/15.png\"" width=150 style=\""vertical-align:middle\"">---生人"",""<img src=\""../../test_img/26.png\"" width=150 style=\""vertical-align:middle\"">---自我"",""<img src=\""../../test_img/22.png\"" width=150 style=\""vertical-align:middle\"">---朋友""]","","",""
"","","","","","html-keyboard-response","63","493419","0.0-9.0-0.0-0.0-0.0-1.1","null","<span style='color:GreenYellow; font-size: 70px;'>正确! </span>","null","","","","","","","","","","","","","","","","","","","","","","","","","feedback_test","",""
"","","","","","psychophysics","64","495167","0.0-9.0-0.0-0.0-0.0-0.2","742","","arrowleft","","","","","","","","","","","","","key","arrowleft","16.66601941747607","630","416","arrowleft","true","../../test_img/22.png","生人","matching_task","朋友","[""<img src=\""../../test_img/15.png\"" width=150 style=\""vertical-align:middle\"">---生人"",""<img src=\""../../test_img/26.png\"" width=150 style=\""vertical-align:middle\"">---自我"",""<img src=\""../../test_img/22.png\"" width=150 style=\""vertical-align:middle\"">---朋友""]","","",""
"","","","","","html-keyboard-response","65","495682","0.0-9.0-0.0-0.0-0.0-1.2","null","<span style='color:GreenYellow; font-size: 70px;'>正确! </span>","null","","","","","","","","","","","","","","","","","","","","","","","","","feedback_test","",""
"","","","","","psychophysics","66","497340","0.0-9.0-0.0-0.0-0.0-0.3","656","","arrowright","","","","","","","","","","","","","key","arrowright","16.664285714285477","630","416","arrowright","true","../../test_img/22.png","朋友","matching_task","朋友","[""<img src=\""../../test_img/15.png\"" width=150 style=\""vertical-align:middle\"">---生人"",""<img src=\""../../test_img/26.png\"" width=150 style=\""vertical-align:middle\"">---自我"",""<img src=\""../../test_img/22.png\"" width=150 style=\""vertical-align:middle\"">---朋友""]","","",""
"","","","","","html-keyboard-response","67","497845","0.0-9.0-0.0-0.0-0.0-1.3","null","<span style='color:GreenYellow; font-size: 70px;'>正确! </span>","null","","","","","","","","","","","","","","","","","","","","","","","","","feedback_test","",""
"","","","","","psychophysics","68","499433","0.0-9.0-0.0-0.0-0.0-0.4","585","","arrowright","","","","","","","","","","","","","key","arrowright","16.668085106382854","630","416","arrowright","true","../../test_img/22.png","朋友","matching_task","朋友","[""<img src=\""../../test_img/15.png\"" width=150 style=\""vertical-align:middle\"">---生人"",""<img src=\""../../test_img/26.png\"" width=150 style=\""vertical-align:middle\"">---自我"",""<img src=\""../../test_img/22.png\"" width=150 style=\""vertical-align:middle\"">---朋友""]","","",""
"","","","","","html-keyboard-response","69","499936","0.0-9.0-0.0-0.0-0.0-1.4","null","<span style='color:GreenYellow; font-size: 70px;'>正确! </span>","null","","","","","","","","","","","","","","","","","","","","","","","","","feedback_test","",""
"","","","","","psychophysics","70","501496","0.0-9.0-0.0-0.0-0.0-0.5","556","","arrowleft","","","","","","","","","","","","","key","arrowleft","16.66956521739105","630","416","arrowleft","true","../../test_img/26.png","生人","matching_task","自我","[""<img src=\""../../test_img/15.png\"" width=150 style=\""vertical-align:middle\"">---生人"",""<img src=\""../../test_img/26.png\"" width=150 style=\""vertical-align:middle\"">---自我"",""<img src=\""../../test_img/22.png\"" width=150 style=\""vertical-align:middle\"">---朋友""]","","",""
"","","","","","html-keyboard-response","71","501999","0.0-9.0-0.0-0.0-0.0-1.5","null","<span style='color:GreenYellow; font-size: 70px;'>正确! </span>","null","","","","","","","","","","","","","","","","","","","","","","","","","feedback_test","",""
"","","","","","psychophysics","72","503618","0.0-9.0-0.0-0.0-0.0-0.6","617","","arrowleft","","","","","","","","","","","","","key","arrowleft","16.665625000000244","630","416","arrowright","false","../../test_img/15.png","生人","matching_task","生人","[""<img src=\""../../test_img/15.png\"" width=150 style=\""vertical-align:middle\"">---生人"",""<img src=\""../../test_img/26.png\"" width=150 style=\""vertical-align:middle\"">---自我"",""<img src=\""../../test_img/22.png\"" width=150 style=\""vertical-align:middle\"">---朋友""]","","",""
"","","","","","html-keyboard-response","73","504127","0.0-9.0-0.0-0.0-0.0-1.6","null","<span style='color:red; font-size: 70px;'>错误! </span>","null","","","","","","","","","","","","","","","","","","","","","","","","","feedback_test","",""
"","","","","","psychophysics","74","505858","0.0-9.0-0.0-0.0-0.0-0.7","728","","arrowright","","","","","","","","","","","","","key","arrowright","16.66615533980584","630","416","arrowright","true","../../test_img/15.png","生人","matching_task","生人","[""<img src=\""../../test_img/15.png\"" width=150 style=\""vertical-align:middle\"">---生人"",""<img src=\""../../test_img/26.png\"" width=150 style=\""vertical-align:middle\"">---自我"",""<img src=\""../../test_img/22.png\"" width=150 style=\""vertical-align:middle\"">---朋友""]","","",""
"","","","","","html-keyboard-response","75","506361","0.0-9.0-0.0-0.0-0.0-1.7","null","<span style='color:GreenYellow; font-size: 70px;'>正确! </span>","null","","","","","","","","","","","","","","","","","","","","","","","","","feedback_test","",""
"","","","","","psychophysics","76","507898","0.0-9.0-0.0-0.0-0.0-0.8","533","","arrowright","","","","","","","","","","","","","key","arrowright","16.665555555555166","630","416","arrowright","true","../../test_img/26.png","自我","matching_task","自我","[""<img src=\""../../test_img/15.png\"" width=150 style=\""vertical-align:middle\"">---生人"",""<img src=\""../../test_img/26.png\"" width=150 style=\""vertical-align:middle\"">---自我"",""<img src=\""../../test_img/22.png\"" width=150 style=\""vertical-align:middle\"">---朋友""]","","",""
"","","","","","html-keyboard-response","77","508406","0.0-9.0-0.0-0.0-0.0-1.8","null","<span style='color:GreenYellow; font-size: 70px;'>正确! </span>","null","","","","","","","","","","","","","","","","","","","","","","","","","feedback_test","",""
"","","","","","psychophysics","78","510003","0.0-9.0-0.0-0.0-0.0-0.9","590","","arrowright","","","","","","","","","","","","","key","arrowright","16.66526315789425","630","416","arrowright","true","../../test_img/26.png","自我","matching_task","自我","[""<img src=\""../../test_img/15.png\"" width=150 style=\""vertical-align:middle\"">---生人"",""<img src=\""../../test_img/26.png\"" width=150 style=\""vertical-align:middle\"">---自我"",""<img src=\""../../test_img/22.png\"" width=150 style=\""vertical-align:middle\"">---朋友""]","","",""
"","","","","","html-keyboard-response","79","510517","0.0-9.0-0.0-0.0-0.0-1.9","null","<span style='color:GreenYellow; font-size: 70px;'>正确! </span>","null","","","","","","","","","","","","","","","","","","","","","","","","","feedback_test","",""
"","","","","","psychophysics","80","511925","0.0-9.0-0.0-0.0-0.0-0.10","407","","arrowright","","","","","","","","","","","","","key","arrowright","16.666265060240825","630","416","arrowleft","false","../../test_img/26.png","朋友","matching_task","自我","[""<img src=\""../../test_img/15.png\"" width=150 style=\""vertical-align:middle\"">---生人"",""<img src=\""../../test_img/26.png\"" width=150 style=\""vertical-align:middle\"">---自我"",""<img src=\""../../test_img/22.png\"" width=150 style=\""vertical-align:middle\"">---朋友""]","","",""
"","","","","","html-keyboard-response","81","512431","0.0-9.0-0.0-0.0-0.0-1.10","null","<span style='color:red; font-size: 70px;'>错误! </span>","null","","","","","","","","","","","","","","","","","","","","","","","","","feedback_test","",""
"","","","","","psychophysics","82","514110","0.0-9.0-0.0-0.0-0.0-0.11","676","","arrowleft","","","","","","","","","","","","","key","arrowleft","16.661616161616163","630","416","arrowleft","true","../../test_img/15.png","朋友","matching_task","生人","[""<img src=\""../../test_img/15.png\"" width=150 style=\""vertical-align:middle\"">---生人"",""<img src=\""../../test_img/26.png\"" width=150 style=\""vertical-align:middle\"">---自我"",""<img src=\""../../test_img/22.png\"" width=150 style=\""vertical-align:middle\"">---朋友""]","","",""
"","","","","","html-keyboard-response","83","514620","0.0-9.0-0.0-0.0-0.0-1.11","null","<span style='color:GreenYellow; font-size: 70px;'>正确! </span>","null","","","","","","","","","","","","","","","","","","","","","","","","","feedback_test","",""
"","","","","","psychophysics","84","516123","0.0-9.0-0.0-0.0-0.0-0.12","492","","arrowright","","","","","","","","","","","","","key","arrowright","16.665168539325972","630","416","arrowright","true","../../test_img/26.png","自我","matching_task","自我","[""<img src=\""../../test_img/15.png\"" width=150 style=\""vertical-align:middle\"">---生人"",""<img src=\""../../test_img/26.png\"" width=150 style=\""vertical-align:middle\"">---自我"",""<img src=\""../../test_img/22.png\"" width=150 style=\""vertical-align:middle\"">---朋友""]","","",""
"","","","","","html-keyboard-response","85","516625","0.0-9.0-0.0-0.0-0.0-1.12","null","<span style='color:GreenYellow; font-size: 70px;'>正确! </span>","null","","","","","","","","","","","","","","","","","","","","","","","","","feedback_test","",""
"","","","","","psychophysics","86","518311","0.0-9.0-0.0-0.0-0.0-0.13","680","","arrowleft","","","","","","","","","","","","","key","arrowleft","16.666999999999533","630","416","arrowleft","true","../../test_img/15.png","朋友","matching_task","生人","[""<img src=\""../../test_img/15.png\"" width=150 style=\""vertical-align:middle\"">---生人"",""<img src=\""../../test_img/26.png\"" width=150 style=\""vertical-align:middle\"">---自我"",""<img src=\""../../test_img/22.png\"" width=150 style=\""vertical-align:middle\"">---朋友""]","","",""
"","","","","","html-keyboard-response","87","518813","0.0-9.0-0.0-0.0-0.0-1.13","null","<span style='color:GreenYellow; font-size: 70px;'>正确! </span>","null","","","","","","","","","","","","","","","","","","","","","","","","","feedback_test","",""
"","","","","","psychophysics","88","520475","0.0-9.0-0.0-0.0-0.0-0.14","658","","arrowleft","","","","","","","","","","","","","key","arrowleft","16.66632653061272","630","416","arrowleft","true","../../test_img/26.png","朋友","matching_task","自我","[""<img src=\""../../test_img/15.png\"" width=150 style=\""vertical-align:middle\"">---生人"",""<img src=\""../../test_img/26.png\"" width=150 style=\""vertical-align:middle\"">---自我"",""<img src=\""../../test_img/22.png\"" width=150 style=\""vertical-align:middle\"">---朋友""]","","",""
"","","","","","html-keyboard-response","89","520988","0.0-9.0-0.0-0.0-0.0-1.14","null","<span style='color:GreenYellow; font-size: 70px;'>正确! </span>","null","","","","","","","","","","","","","","","","","","","","","","","","","feedback_test","",""
"","","","","","psychophysics","90","522396","0.0-9.0-0.0-0.0-0.0-0.15","405","","arrowright","","","","","","","","","","","","","key","arrowright","16.667469879518354","630","416","arrowright","true","../../test_img/22.png","朋友","matching_task","朋友","[""<img src=\""../../test_img/15.png\"" width=150 style=\""vertical-align:middle\"">---生人"",""<img src=\""../../test_img/26.png\"" width=150 style=\""vertical-align:middle\"">---自我"",""<img src=\""../../test_img/22.png\"" width=150 style=\""vertical-align:middle\"">---朋友""]","","",""
"","","","","","html-keyboard-response","91","522903","0.0-9.0-0.0-0.0-0.0-1.15","null","<span style='color:GreenYellow; font-size: 70px;'>正确! </span>","null","","","","","","","","","","","","","","","","","","","","","","","","","feedback_test","",""
"","","","","","psychophysics","92","524480","0.0-9.0-0.0-0.0-0.0-0.16","574","","arrowleft","","","","","","","","","","","","","key","arrowleft","16.665808510638406","630","416","arrowright","false","../../test_img/15.png","生人","matching_task","生人","[""<img src=\""../../test_img/15.png\"" width=150 style=\""vertical-align:middle\"">---生人"",""<img src=\""../../test_img/26.png\"" width=150 style=\""vertical-align:middle\"">---自我"",""<img src=\""../../test_img/22.png\"" width=150 style=\""vertical-align:middle\"">---朋友""]","","",""
"","","","","","html-keyboard-response","93","524992","0.0-9.0-0.0-0.0-0.0-1.16","null","<span style='color:red; font-size: 70px;'>错误! </span>","null","","","","","","","","","","","","","","","","","","","","","","","","","feedback_test","",""
"","","","","","psychophysics","94","526594","0.0-9.0-0.0-0.0-0.0-0.17","599","","arrowright","","","","","","","","","","","","","key","arrowright","16.66702127659525","630","416","arrowright","true","../../test_img/22.png","朋友","matching_task","朋友","[""<img src=\""../../test_img/15.png\"" width=150 style=\""vertical-align:middle\"">---生人"",""<img src=\""../../test_img/26.png\"" width=150 style=\""vertical-align:middle\"">---自我"",""<img src=\""../../test_img/22.png\"" width=150 style=\""vertical-align:middle\"">---朋友""]","","",""
"","","","","","html-keyboard-response","95","527108","0.0-9.0-0.0-0.0-0.0-1.17","null","<span style='color:GreenYellow; font-size: 70px;'>正确! </span>","null","","","","","","","","","","","","","","","","","","","","","","","","","feedback_test","",""
"","","","","","psychophysics","96","528677","0.0-9.0-0.0-0.0-0.0-0.18","560","","arrowright","","","","","","","","","","","","","key","arrowright","16.666666666666668","630","416","arrowright","true","../../test_img/26.png","自我","matching_task","自我","[""<img src=\""../../test_img/15.png\"" width=150 style=\""vertical-align:middle\"">---生人"",""<img src=\""../../test_img/26.png\"" width=150 style=\""vertical-align:middle\"">---自我"",""<img src=\""../../test_img/22.png\"" width=150 style=\""vertical-align:middle\"">---朋友""]","","",""
"","","","","","html-keyboard-response","97","529183","0.0-9.0-0.0-0.0-0.0-1.18","null","<span style='color:GreenYellow; font-size: 70px;'>正确! </span>","null","","","","","","","","","","","","","","","","","","","","","","","","","feedback_test","",""
"","","","","","psychophysics","98","530817","0.0-9.0-0.0-0.0-0.0-0.19","633","","arrowleft","","","","","","","","","","","","","key","arrowleft","16.667708333333092","630","416","arrowleft","true","../../test_img/22.png","自我","matching_task","朋友","[""<img src=\""../../test_img/15.png\"" width=150 style=\""vertical-align:middle\"">---生人"",""<img src=\""../../test_img/26.png\"" width=150 style=\""vertical-align:middle\"">---自我"",""<img src=\""../../test_img/22.png\"" width=150 style=\""vertical-align:middle\"">---朋友""]","","",""
"","","","","","html-keyboard-response","99","531318","0.0-9.0-0.0-0.0-0.0-1.19","null","<span style='color:GreenYellow; font-size: 70px;'>正确! </span>","null","","","","","","","","","","","","","","","","","","","","","","","","","feedback_test","",""
"","","","","","psychophysics","100","533106","0.0-9.0-0.0-0.0-0.0-0.20","787","","arrowleft","","","","","","","","","","","","","key","arrowleft","16.664150943396447","630","416","arrowleft","true","../../test_img/26.png","生人","matching_task","自我","[""<img src=\""../../test_img/15.png\"" width=150 style=\""vertical-align:middle\"">---生人"",""<img src=\""../../test_img/26.png\"" width=150 style=\""vertical-align:middle\"">---自我"",""<img src=\""../../test_img/22.png\"" width=150 style=\""vertical-align:middle\"">---朋友""]","","",""
"","","","","","html-keyboard-response","101","533607","0.0-9.0-0.0-0.0-0.0-1.20","null","<span style='color:GreenYellow; font-size: 70px;'>正确! </span>","null","","","","","","","","","","","","","","","","","","","","","","","","","feedback_test","",""
"","","","","","psychophysics","102","535365","0.0-9.0-0.0-0.0-0.0-0.21","751","","arrowleft","","","","","","","","","","","","","key","arrowleft","16.665384615384166","630","416","arrowleft","true","../../test_img/22.png","生人","matching_task","朋友","[""<img src=\""../../test_img/15.png\"" width=150 style=\""vertical-align:middle\"">---生人"",""<img src=\""../../test_img/26.png\"" width=150 style=\""vertical-align:middle\"">---自我"",""<img src=\""../../test_img/22.png\"" width=150 style=\""vertical-align:middle\"">---朋友""]","","",""
"","","","","","html-keyboard-response","103","535877","0.0-9.0-0.0-0.0-0.0-1.21","null","<span style='color:GreenYellow; font-size: 70px;'>正确! </span>","null","","","","","","","","","","","","","","","","","","","","","","","","","feedback_test","",""
"","","","","","psychophysics","104","537474","0.0-9.0-0.0-0.0-0.0-0.22","590","","arrowright","","","","","","","","","","","","","key","arrowright","16.666315789474176","630","416","arrowleft","false","../../test_img/15.png","自我","matching_task","生人","[""<img src=\""../../test_img/15.png\"" width=150 style=\""vertical-align:middle\"">---生人"",""<img src=\""../../test_img/26.png\"" width=150 style=\""vertical-align:middle\"">---自我"",""<img src=\""../../test_img/22.png\"" width=150 style=\""vertical-align:middle\"">---朋友""]","","",""
"","","","","","html-keyboard-response","105","537981","0.0-9.0-0.0-0.0-0.0-1.22","null","<span style='color:red; font-size: 70px;'>错误! </span>","null","","","","","","","","","","","","","","","","","","","","","","","","","feedback_test","",""
"","","","","","psychophysics","106","539608","0.0-9.0-0.0-0.0-0.0-0.23","624","","arrowright","","","","","","","","","","","","","key","arrowright","16.660416666666908","630","416","arrowright","true","../../test_img/15.png","生人","matching_task","生人","[""<img src=\""../../test_img/15.png\"" width=150 style=\""vertical-align:middle\"">---生人"",""<img src=\""../../test_img/26.png\"" width=150 style=\""vertical-align:middle\"">---自我"",""<img src=\""../../test_img/22.png\"" width=150 style=\""vertical-align:middle\"">---朋友""]","","",""
"","","","","","html-keyboard-response","107","540121","0.0-9.0-0.0-0.0-0.0-1.23","null","<span style='color:GreenYellow; font-size: 70px;'>正确! </span>","null","","","","","","","","","","","","","","","","","","","","","","","","","feedback_test","",""
"","","","","","psychophysics","108","541811","0.0-9.0-0.0-0.0-0.0-0.24","681","","arrowleft","","","","","","","","","","","","","key","arrowleft","16.667000000000698","630","416","arrowleft","true","../../test_img/22.png","生人","matching_task","朋友","[""<img src=\""../../test_img/15.png\"" width=150 style=\""vertical-align:middle\"">---生人"",""<img src=\""../../test_img/26.png\"" width=150 style=\""vertical-align:middle\"">---自我"",""<img src=\""../../test_img/22.png\"" width=150 style=\""vertical-align:middle\"">---朋友""]","","",""
"","","","","","html-keyboard-response","109","542326","0.0-9.0-0.0-0.0-0.0-1.24","null","<span style='color:GreenYellow; font-size: 70px;'>正确! </span>","null","","","","","","","","","","","","","","","","","","","","","","","","","feedback_test","",""
"","","","","","psychophysics","110","543927","0.0-9.0-0.0-0.0-0.0-0.25","593","","arrowleft","","","","","","","","","","","","","key","arrowleft","16.66526315789425","630","416","arrowright","false","../../test_img/15.png","生人","matching_task","生人","[""<img src=\""../../test_img/15.png\"" width=150 style=\""vertical-align:middle\"">---生人"",""<img src=\""../../test_img/26.png\"" width=150 style=\""vertical-align:middle\"">---自我"",""<img src=\""../../test_img/22.png\"" width=150 style=\""vertical-align:middle\"">---朋友""]","","",""
"","","","","","html-keyboard-response","111","544435","0.0-9.0-0.0-0.0-0.0-1.25","null","<span style='color:red; font-size: 70px;'>错误! </span>","null","","","","","","","","","","","","","","","","","","","","","","","","","feedback_test","",""
"","","","","","psychophysics","112","546064","0.0-9.0-0.0-0.0-0.0-0.26","623","","arrowleft","","","","","","","","","","","","","key","arrowleft","16.666666666666668","630","416","arrowleft","true","../../test_img/26.png","朋友","matching_task","自我","[""<img src=\""../../test_img/15.png\"" width=150 style=\""vertical-align:middle\"">---生人"",""<img src=\""../../test_img/26.png\"" width=150 style=\""vertical-align:middle\"">---自我"",""<img src=\""../../test_img/22.png\"" width=150 style=\""vertical-align:middle\"">---朋友""]","","",""
"","","","","","html-keyboard-response","113","546573","0.0-9.0-0.0-0.0-0.0-1.26","null","<span style='color:GreenYellow; font-size: 70px;'>正确! </span>","null","","","","","","","","","","","","","","","","","","","","","","","","","feedback_test","",""
"","","","","","psychophysics","114","548398","0.0-9.0-0.0-0.0-0.0-0.27","818","","arrowleft","","","","","","","","","","","","","key","arrowleft","16.666666666666668","630","416","arrowleft","true","../../test_img/15.png","朋友","matching_task","生人","[""<img src=\""../../test_img/15.png\"" width=150 style=\""vertical-align:middle\"">---生人"",""<img src=\""../../test_img/26.png\"" width=150 style=\""vertical-align:middle\"">---自我"",""<img src=\""../../test_img/22.png\"" width=150 style=\""vertical-align:middle\"">---朋友""]","","",""
"","","","","","html-keyboard-response","115","548913","0.0-9.0-0.0-0.0-0.0-1.27","null","<span style='color:GreenYellow; font-size: 70px;'>正确! </span>","null","","","","","","","","","","","","","","","","","","","","","","","","","feedback_test","",""
"","","","","","psychophysics","116","550308","0.0-9.0-0.0-0.0-0.0-0.28","390","","arrowright","","","","","","","","","","","","","key","arrowright","16.665853658536303","630","416","arrowright","true","../../test_img/26.png","自我","matching_task","自我","[""<img src=\""../../test_img/15.png\"" width=150 style=\""vertical-align:middle\"">---生人"",""<img src=\""../../test_img/26.png\"" width=150 style=\""vertical-align:middle\"">---自我"",""<img src=\""../../test_img/22.png\"" width=150 style=\""vertical-align:middle\"">---朋友""]","","",""
"","","","","","html-keyboard-response","117","550813","0.0-9.0-0.0-0.0-0.0-1.28","null","<span style='color:GreenYellow; font-size: 70px;'>正确! </span>","null","","","","","","","","","","","","","","","","","","","","","","","","","feedback_test","",""
"","","","","","psychophysics","118","552412","0.0-9.0-0.0-0.0-0.0-0.29","596","","arrowleft","","","","","","","","","","","","","key","arrowleft","16.6559368421054","630","416","arrowleft","true","../../test_img/15.png","自我","matching_task","生人","[""<img src=\""../../test_img/15.png\"" width=150 style=\""vertical-align:middle\"">---生人"",""<img src=\""../../test_img/26.png\"" width=150 style=\""vertical-align:middle\"">---自我"",""<img src=\""../../test_img/22.png\"" width=150 style=\""vertical-align:middle\"">---朋友""]","","",""
"","","","","","html-keyboard-response","119","552914","0.0-9.0-0.0-0.0-0.0-1.29","null","<span style='color:GreenYellow; font-size: 70px;'>正确! </span>","null","","","","","","","","","","","","","","","","","","","","","","","","","feedback_test","",""
"","","","","","psychophysics","120","554645","0.0-9.0-0.0-0.0-0.0-0.30","728","","arrowleft","","","","","","","","","","","","","key","arrowleft","16.653921568626995","630","416","arrowleft","true","../../test_img/22.png","自我","matching_task","朋友","[""<img src=\""../../test_img/15.png\"" width=150 style=\""vertical-align:middle\"">---生人"",""<img src=\""../../test_img/26.png\"" width=150 style=\""vertical-align:middle\"">---自我"",""<img src=\""../../test_img/22.png\"" width=150 style=\""vertical-align:middle\"">---朋友""]","","",""
"","","","","","html-keyboard-response","121","555160","0.0-9.0-0.0-0.0-0.0-1.30","null","<span style='color:GreenYellow; font-size: 70px;'>正确! </span>","null","","","","","","","","","","","","","","","","","","","","","","","","","feedback_test","",""
"","","","","","psychophysics","122","556771","0.0-9.0-0.0-0.0-0.0-0.31","608","","arrowright","","","","","","","","","","","","","key","arrowright","16.666666666666668","630","416","arrowright","true","../../test_img/15.png","生人","matching_task","生人","[""<img src=\""../../test_img/15.png\"" width=150 style=\""vertical-align:middle\"">---生人"",""<img src=\""../../test_img/26.png\"" width=150 style=\""vertical-align:middle\"">---自我"",""<img src=\""../../test_img/22.png\"" width=150 style=\""vertical-align:middle\"">---朋友""]","","",""
"","","","","","html-keyboard-response","123","557281","0.0-9.0-0.0-0.0-0.0-1.31","null","<span style='color:GreenYellow; font-size: 70px;'>正确! </span>","null","","","","","","","","","","","","","","","","","","","","","","","","","feedback_test","",""
"","","","","","psychophysics","124","558769","0.0-9.0-0.0-0.0-0.0-0.32","484","","arrowright","","","","","","","","","","","","","key","arrowright","16.664772727272727","630","416","arrowright","true","../../test_img/26.png","自我","matching_task","自我","[""<img src=\""../../test_img/15.png\"" width=150 style=\""vertical-align:middle\"">---生人"",""<img src=\""../../test_img/26.png\"" width=150 style=\""vertical-align:middle\"">---自我"",""<img src=\""../../test_img/22.png\"" width=150 style=\""vertical-align:middle\"">---朋友""]","","",""
"","","","","","html-keyboard-response","125","559269","0.0-9.0-0.0-0.0-0.0-1.32","null","<span style='color:GreenYellow; font-size: 70px;'>正确! </span>","null","","","","","","","","","","","","","","","","","","","","","","","","","feedback_test","",""
"","","","","","psychophysics","126","560846","0.0-9.0-0.0-0.0-0.0-0.33","568","","arrowleft","","","","","","","","","","","","","key","arrowleft","16.663440860214553","630","416","arrowleft","true","../../test_img/26.png","生人","matching_task","自我","[""<img src=\""../../test_img/15.png\"" width=150 style=\""vertical-align:middle\"">---生人"",""<img src=\""../../test_img/26.png\"" width=150 style=\""vertical-align:middle\"">---自我"",""<img src=\""../../test_img/22.png\"" width=150 style=\""vertical-align:middle\"">---朋友""]","","",""
"","","","","","html-keyboard-response","127","561352","0.0-9.0-0.0-0.0-0.0-1.33","null","<span style='color:GreenYellow; font-size: 70px;'>正确! </span>","null","","","","","","","","","","","","","","","","","","","","","","","","","feedback_test","",""
"","","","","","psychophysics","128","562958","0.0-9.0-0.0-0.0-0.0-0.34","598","","arrowright","","","","","","","","","","","","","key","arrowright","16.66842105263158","630","416","arrowright","true","../../test_img/22.png","朋友","matching_task","朋友","[""<img src=\""../../test_img/15.png\"" width=150 style=\""vertical-align:middle\"">---生人"",""<img src=\""../../test_img/26.png\"" width=150 style=\""vertical-align:middle\"">---自我"",""<img src=\""../../test_img/22.png\"" width=150 style=\""vertical-align:middle\"">---朋友""]","","",""
"","","","","","html-keyboard-response","129","563462","0.0-9.0-0.0-0.0-0.0-1.34","null","<span style='color:GreenYellow; font-size: 70px;'>正确! </span>","null","","","","","","","","","","","","","","","","","","","","","","","","","feedback_test","",""
"","","","","","psychophysics","130","565142","0.0-9.0-0.0-0.0-0.0-0.35","674","","arrowright","","","","","","","","","","","","","key","arrowright","16.664860000000335","630","416","arrowright","true","../../test_img/22.png","朋友","matching_task","朋友","[""<img src=\""../../test_img/15.png\"" width=150 style=\""vertical-align:middle\"">---生人"",""<img src=\""../../test_img/26.png\"" width=150 style=\""vertical-align:middle\"">---自我"",""<img src=\""../../test_img/22.png\"" width=150 style=\""vertical-align:middle\"">---朋友""]","","",""
"","","","","","html-keyboard-response","131","565650","0.0-9.0-0.0-0.0-0.0-1.35","null","<span style='color:GreenYellow; font-size: 70px;'>正确! </span>","null","","","","","","","","","","","","","","","","","","","","","","","","","feedback_test","",""
"","","","","","psychophysics","132","567224","0.0-9.0-0.0-0.0-0.0-0.36","572","","arrowright","","","","","","","","","","","","","key","arrowright","16.66774193548362","630","416","arrowright","true","../../test_img/15.png","生人","matching_task","生人","[""<img src=\""../../test_img/15.png\"" width=150 style=\""vertical-align:middle\"">---生人"",""<img src=\""../../test_img/26.png\"" width=150 style=\""vertical-align:middle\"">---自我"",""<img src=\""../../test_img/22.png\"" width=150 style=\""vertical-align:middle\"">---朋友""]","","",""
"","","","","","html-keyboard-response","133","567732","0.0-9.0-0.0-0.0-0.0-1.36","null","<span style='color:GreenYellow; font-size: 70px;'>正确! </span>","null","","","","","","","","","","","","","","","","","","","","","","","","","feedback_test","",""
"","","","","","psychophysics","134","569555","0.0-9.0-0.0-0.0-0.0-0.37","820","","arrowleft","","","","","","","","","","","","","key","arrowleft","16.62962962962963","630","416","arrowleft","true","../../test_img/26.png","生人","matching_task","自我","[""<img src=\""../../test_img/15.png\"" width=150 style=\""vertical-align:middle\"">---生人"",""<img src=\""../../test_img/26.png\"" width=150 style=\""vertical-align:middle\"">---自我"",""<img src=\""../../test_img/22.png\"" width=150 style=\""vertical-align:middle\"">---朋友""]","","",""
"","","","","","html-keyboard-response","135","570059","0.0-9.0-0.0-0.0-0.0-1.37","null","<span style='color:GreenYellow; font-size: 70px;'>正确! </span>","null","","","","","","","","","","","","","","","","","","","","","","","","","feedback_test","",""
"","","","","","psychophysics","136","571859","0.0-9.0-0.0-0.0-0.0-0.38","791","","arrowleft","","","","","","","","","","","","","key","arrowleft","16.66822429906542","630","416","arrowleft","true","../../test_img/15.png","朋友","matching_task","生人","[""<img src=\""../../test_img/15.png\"" width=150 style=\""vertical-align:middle\"">---生人"",""<img src=\""../../test_img/26.png\"" width=150 style=\""vertical-align:middle\"">---自我"",""<img src=\""../../test_img/22.png\"" width=150 style=\""vertical-align:middle\"">---朋友""]","","",""
"","","","","","html-keyboard-response","137","572374","0.0-9.0-0.0-0.0-0.0-1.38","null","<span style='color:GreenYellow; font-size: 70px;'>正确! </span>","null","","","","","","","","","","","","","","","","","","","","","","","","","feedback_test","",""
"","","","","","psychophysics","138","573928","0.0-9.0-0.0-0.0-0.0-0.39","544","","arrowright","","","","","","","","","","","","","key","arrowright","16.66593406593509","630","416","arrowright","true","../../test_img/26.png","自我","matching_task","自我","[""<img src=\""../../test_img/15.png\"" width=150 style=\""vertical-align:middle\"">---生人"",""<img src=\""../../test_img/26.png\"" width=150 style=\""vertical-align:middle\"">---自我"",""<img src=\""../../test_img/22.png\"" width=150 style=\""vertical-align:middle\"">---朋友""]","","",""
"","","","","","html-keyboard-response","139","574438","0.0-9.0-0.0-0.0-0.0-1.39","null","<span style='color:GreenYellow; font-size: 70px;'>正确! </span>","null","","","","","","","","","","","","","","","","","","","","","","","","","feedback_test","",""
"","","","","","psychophysics","140","576086","0.0-9.0-0.0-0.0-0.0-0.40","644","","arrowleft","","","","","","","","","","","","","key","arrowleft","16.667346938775747","630","416","arrowleft","true","../../test_img/26.png","朋友","matching_task","自我","[""<img src=\""../../test_img/15.png\"" width=150 style=\""vertical-align:middle\"">---生人"",""<img src=\""../../test_img/26.png\"" width=150 style=\""vertical-align:middle\"">---自我"",""<img src=\""../../test_img/22.png\"" width=150 style=\""vertical-align:middle\"">---朋友""]","","",""
"","","","","","html-keyboard-response","141","576596","0.0-9.0-0.0-0.0-0.0-1.40","null","<span style='color:GreenYellow; font-size: 70px;'>正确! </span>","null","","","","","","","","","","","","","","","","","","","","","","","","","feedback_test","",""
"","","","","","psychophysics","142","578266","0.0-9.0-0.0-0.0-0.0-0.41","665","","arrowleft","","","","","","","","","","","","","key","arrowleft","16.667535353535456","630","416","arrowleft","true","../../test_img/15.png","自我","matching_task","生人","[""<img src=\""../../test_img/15.png\"" width=150 style=\""vertical-align:middle\"">---生人"",""<img src=\""../../test_img/26.png\"" width=150 style=\""vertical-align:middle\"">---自我"",""<img src=\""../../test_img/22.png\"" width=150 style=\""vertical-align:middle\"">---朋友""]","","",""
"","","","","","html-keyboard-response","143","578772","0.0-9.0-0.0-0.0-0.0-1.41","null","<span style='color:GreenYellow; font-size: 70px;'>正确! </span>","null","","","","","","","","","","","","","","","","","","","","","","","","","feedback_test","",""
"","","","","","psychophysics","144","580536","0.0-9.0-0.0-0.0-0.0-0.42","756","","arrowright","","","","","","","","","","","","","key","arrowright","16.667619047618825","630","416","arrowright","true","../../test_img/15.png","生人","matching_task","生人","[""<img src=\""../../test_img/15.png\"" width=150 style=\""vertical-align:middle\"">---生人"",""<img src=\""../../test_img/26.png\"" width=150 style=\""vertical-align:middle\"">---自我"",""<img src=\""../../test_img/22.png\"" width=150 style=\""vertical-align:middle\"">---朋友""]","","",""
"","","","","","html-keyboard-response","145","581038","0.0-9.0-0.0-0.0-0.0-1.42","null","<span style='color:GreenYellow; font-size: 70px;'>正确! </span>","null","","","","","","","","","","","","","","","","","","","","","","","","","feedback_test","",""
"","","","","","psychophysics","146","582747","0.0-9.0-0.0-0.0-0.0-0.43","693","","arrowleft","","","","","","","","","","","","","key","arrowleft","16.668316831683168","630","416","arrowleft","true","../../test_img/22.png","自我","matching_task","朋友","[""<img src=\""../../test_img/15.png\"" width=150 style=\""vertical-align:middle\"">---生人"",""<img src=\""../../test_img/26.png\"" width=150 style=\""vertical-align:middle\"">---自我"",""<img src=\""../../test_img/22.png\"" width=150 style=\""vertical-align:middle\"">---朋友""]","","",""
"","","","","","html-keyboard-response","147","583256","0.0-9.0-0.0-0.0-0.0-1.43","null","<span style='color:GreenYellow; font-size: 70px;'>正确! </span>","null","","","","","","","","","","","","","","","","","","","","","","","","","feedback_test","",""
"","","","","","psychophysics","148","584918","0.0-9.0-0.0-0.0-0.0-0.44","655","","arrowright","","","","","","","","","","","","","key","arrowright","16.66969696969744","630","416","arrowright","true","../../test_img/22.png","朋友","matching_task","朋友","[""<img src=\""../../test_img/15.png\"" width=150 style=\""vertical-align:middle\"">---生人"",""<img src=\""../../test_img/26.png\"" width=150 style=\""vertical-align:middle\"">---自我"",""<img src=\""../../test_img/22.png\"" width=150 style=\""vertical-align:middle\"">---朋友""]","","",""
"","","","","","html-keyboard-response","149","585425","0.0-9.0-0.0-0.0-0.0-1.44","null","<span style='color:GreenYellow; font-size: 70px;'>正确! </span>","null","","","","","","","","","","","","","","","","","","","","","","","","","feedback_test","",""
"","","","","","psychophysics","150","587027","0.0-9.0-0.0-0.0-0.0-0.45","598","","arrowright","","","","","","","","","","","","","key","arrowright","16.662765957447302","630","416","arrowright","true","../../test_img/26.png","自我","matching_task","自我","[""<img src=\""../../test_img/15.png\"" width=150 style=\""vertical-align:middle\"">---生人"",""<img src=\""../../test_img/26.png\"" width=150 style=\""vertical-align:middle\"">---自我"",""<img src=\""../../test_img/22.png\"" width=150 style=\""vertical-align:middle\"">---朋友""]","","",""
"","","","","","html-keyboard-response","151","587532","0.0-9.0-0.0-0.0-0.0-1.45","null","<span style='color:GreenYellow; font-size: 70px;'>正确! </span>","null","","","","","","","","","","","","","","","","","","","","","","","","","feedback_test","",""
"","","","","","psychophysics","152","589153","0.0-9.0-0.0-0.0-0.0-0.46","619","","arrowleft","","","","","","","","","","","","","key","arrowleft","16.661458333333332","630","416","arrowleft","true","../../test_img/22.png","生人","matching_task","朋友","[""<img src=\""../../test_img/15.png\"" width=150 style=\""vertical-align:middle\"">---生人"",""<img src=\""../../test_img/26.png\"" width=150 style=\""vertical-align:middle\"">---自我"",""<img src=\""../../test_img/22.png\"" width=150 style=\""vertical-align:middle\"">---朋友""]","","",""
"","","","","","html-keyboard-response","153","589668","0.0-9.0-0.0-0.0-0.0-1.46","null","<span style='color:GreenYellow; font-size: 70px;'>正确! </span>","null","","","","","","","","","","","","","","","","","","","","","","","","","feedback_test","",""
"","","","","","psychophysics","154","591300","0.0-9.0-0.0-0.0-0.0-0.47","623","","arrowright","","","","","","","","","","","","","key","arrowright","16.66458333333382","630","416","arrowright","true","../../test_img/22.png","朋友","matching_task","朋友","[""<img src=\""../../test_img/15.png\"" width=150 style=\""vertical-align:middle\"">---生人"",""<img src=\""../../test_img/26.png\"" width=150 style=\""vertical-align:middle\"">---自我"",""<img src=\""../../test_img/22.png\"" width=150 style=\""vertical-align:middle\"">---朋友""]","","",""
"","","","","","html-keyboard-response","155","591810","0.0-9.0-0.0-0.0-0.0-1.47","null","<span style='color:GreenYellow; font-size: 70px;'>正确! </span>","null","","","","","","","","","","","","","","","","","","","","","","","","","feedback_test","",""
"","","","","","psychophysics","156","593382","0.0-9.0-0.0-0.0-0.0-0.48","565","","arrowleft","","","","","","","","","","","","","key","arrowleft","16.668817204300574","630","416","arrowleft","true","../../test_img/22.png","生人","matching_task","朋友","[""<img src=\""../../test_img/15.png\"" width=150 style=\""vertical-align:middle\"">---生人"",""<img src=\""../../test_img/26.png\"" width=150 style=\""vertical-align:middle\"">---自我"",""<img src=\""../../test_img/22.png\"" width=150 style=\""vertical-align:middle\"">---朋友""]","","",""
"","","","","","html-keyboard-response","157","593889","0.0-9.0-0.0-0.0-0.0-1.48","null","<span style='color:GreenYellow; font-size: 70px;'>正确! </span>","null","","","","","","","","","","","","","","","","","","","","","","","","","feedback_test","",""
"","","","","","psychophysics","158","595590","0.0-9.0-0.0-0.0-0.0-0.49","697","","arrowright","","","","","","","","","","","","","key","arrowright","16.667326732673498","630","416","arrowright","true","../../test_img/22.png","朋友","matching_task","朋友","[""<img src=\""../../test_img/15.png\"" width=150 style=\""vertical-align:middle\"">---生人"",""<img src=\""../../test_img/26.png\"" width=150 style=\""vertical-align:middle\"">---自我"",""<img src=\""../../test_img/22.png\"" width=150 style=\""vertical-align:middle\"">---朋友""]","","",""
"","","","","","html-keyboard-response","159","596091","0.0-9.0-0.0-0.0-0.0-1.49","null","<span style='color:GreenYellow; font-size: 70px;'>正确! </span>","null","","","","","","","","","","","","","","","","","","","","","","","","","feedback_test","",""
"","","","","","psychophysics","160","597533","0.0-9.0-0.0-0.0-0.0-0.50","434","","arrowright","","","","","","","","","","","","","key","arrowright","16.666666666666668","630","416","arrowright","true","../../test_img/26.png","自我","matching_task","自我","[""<img src=\""../../test_img/15.png\"" width=150 style=\""vertical-align:middle\"">---生人"",""<img src=\""../../test_img/26.png\"" width=150 style=\""vertical-align:middle\"">---自我"",""<img src=\""../../test_img/22.png\"" width=150 style=\""vertical-align:middle\"">---朋友""]","","",""
"","","","","","html-keyboard-response","161","598041","0.0-9.0-0.0-0.0-0.0-1.50","null","<span style='color:GreenYellow; font-size: 70px;'>正确! </span>","null","","","","","","","","","","","","","","","","","","","","","","","","","feedback_test","",""
"","","","","","psychophysics","162","599722","0.0-9.0-0.0-0.0-0.0-0.51","672","","arrowleft","","","","","","","","","","","","","key","arrowleft","16.668000000000465","630","416","arrowleft","true","../../test_img/15.png","朋友","matching_task","生人","[""<img src=\""../../test_img/15.png\"" width=150 style=\""vertical-align:middle\"">---生人"",""<img src=\""../../test_img/26.png\"" width=150 style=\""vertical-align:middle\"">---自我"",""<img src=\""../../test_img/22.png\"" width=150 style=\""vertical-align:middle\"">---朋友""]","","",""
"","","","","","html-keyboard-response","163","600231","0.0-9.0-0.0-0.0-0.0-1.51","null","<span style='color:GreenYellow; font-size: 70px;'>正确! </span>","null","","","","","","","","","","","","","","","","","","","","","","","","","feedback_test","",""
"","","","","","psychophysics","164","602031","0.0-9.0-0.0-0.0-0.0-0.52","797","","arrowright","","","","","","","","","","","","","key","arrowright","16.665909090908826","630","416","arrowright","true","../../test_img/26.png","自我","matching_task","自我","[""<img src=\""../../test_img/15.png\"" width=150 style=\""vertical-align:middle\"">---生人"",""<img src=\""../../test_img/26.png\"" width=150 style=\""vertical-align:middle\"">---自我"",""<img src=\""../../test_img/22.png\"" width=150 style=\""vertical-align:middle\"">---朋友""]","","",""
"","","","","","html-keyboard-response","165","602532","0.0-9.0-0.0-0.0-0.0-1.52","null","<span style='color:GreenYellow; font-size: 70px;'>正确! </span>","null","","","","","","","","","","","","","","","","","","","","","","","","","feedback_test","",""
"","","","","","psychophysics","166","604159","0.0-9.0-0.0-0.0-0.0-0.53","625","","arrowleft","","","","","","","","","","","","","key","arrowleft","16.660416666665697","630","416","arrowleft","true","../../test_img/26.png","生人","matching_task","自我","[""<img src=\""../../test_img/15.png\"" width=150 style=\""vertical-align:middle\"">---生人"",""<img src=\""../../test_img/26.png\"" width=150 style=\""vertical-align:middle\"">---自我"",""<img src=\""../../test_img/22.png\"" width=150 style=\""vertical-align:middle\"">---朋友""]","","",""
"","","","","","html-keyboard-response","167","604662","0.0-9.0-0.0-0.0-0.0-1.53","null","<span style='color:GreenYellow; font-size: 70px;'>正确! </span>","null","","","","","","","","","","","","","","","","","","","","","","","","","feedback_test","",""
"","","","","","psychophysics","168","606349","0.0-9.0-0.0-0.0-0.0-0.54","684","","arrowleft","","","","","","","","","","","","","key","arrowleft","16.66899999999907","630","416","arrowleft","true","../../test_img/26.png","朋友","matching_task","自我","[""<img src=\""../../test_img/15.png\"" width=150 style=\""vertical-align:middle\"">---生人"",""<img src=\""../../test_img/26.png\"" width=150 style=\""vertical-align:middle\"">---自我"",""<img src=\""../../test_img/22.png\"" width=150 style=\""vertical-align:middle\"">---朋友""]","","",""
"","","","","","html-keyboard-response","169","606852","0.0-9.0-0.0-0.0-0.0-1.54","null","<span style='color:GreenYellow; font-size: 70px;'>正确! </span>","null","","","","","","","","","","","","","","","","","","","","","","","","","feedback_test","",""
"","","","","","psychophysics","170","608830","0.0-9.0-0.0-0.0-0.0-0.55","973","","arrowright","","","","","","","","","","","","","key","arrowright","16.666666666666668","630","416","arrowright","true","../../test_img/22.png","朋友","matching_task","朋友","[""<img src=\""../../test_img/15.png\"" width=150 style=\""vertical-align:middle\"">---生人"",""<img src=\""../../test_img/26.png\"" width=150 style=\""vertical-align:middle\"">---自我"",""<img src=\""../../test_img/22.png\"" width=150 style=\""vertical-align:middle\"">---朋友""]","","",""
"","","","","","html-keyboard-response","171","609332","0.0-9.0-0.0-0.0-0.0-1.55","null","<span style='color:GreenYellow; font-size: 70px;'>正确! </span>","null","","","","","","","","","","","","","","","","","","","","","","","","","feedback_test","",""
"","","","","","psychophysics","172","610892","0.0-9.0-0.0-0.0-0.0-0.56","558","","arrowleft","","","","","","","","","","","","","key","arrowleft","16.649999999999242","630","416","arrowleft","true","../../test_img/15.png","自我","matching_task","生人","[""<img src=\""../../test_img/15.png\"" width=150 style=\""vertical-align:middle\"">---生人"",""<img src=\""../../test_img/26.png\"" width=150 style=\""vertical-align:middle\"">---自我"",""<img src=\""../../test_img/22.png\"" width=150 style=\""vertical-align:middle\"">---朋友""]","","",""
"","","","","","html-keyboard-response","173","611405","0.0-9.0-0.0-0.0-0.0-1.56","null","<span style='color:GreenYellow; font-size: 70px;'>正确! </span>","null","","","","","","","","","","","","","","","","","","","","","","","","","feedback_test","",""
"","","","","","psychophysics","174","613151","0.0-9.0-0.0-0.0-0.0-0.57","738","","arrowleft","","","","","","","","","","","","","key","arrowleft","16.66634615384548","630","416","arrowleft","true","../../test_img/22.png","自我","matching_task","朋友","[""<img src=\""../../test_img/15.png\"" width=150 style=\""vertical-align:middle\"">---生人"",""<img src=\""../../test_img/26.png\"" width=150 style=\""vertical-align:middle\"">---自我"",""<img src=\""../../test_img/22.png\"" width=150 style=\""vertical-align:middle\"">---朋友""]","","",""
"","","","","","html-keyboard-response","175","613656","0.0-9.0-0.0-0.0-0.0-1.57","null","<span style='color:GreenYellow; font-size: 70px;'>正确! </span>","null","","","","","","","","","","","","","","","","","","","","","","","","","feedback_test","",""
"","","","","","psychophysics","176","615191","0.0-9.0-0.0-0.0-0.0-0.58","531","","arrowleft","","","","","","","","","","","","","key","arrowleft","16.669230769229745","630","416","arrowright","false","../../test_img/15.png","生人","matching_task","生人","[""<img src=\""../../test_img/15.png\"" width=150 style=\""vertical-align:middle\"">---生人"",""<img src=\""../../test_img/26.png\"" width=150 style=\""vertical-align:middle\"">---自我"",""<img src=\""../../test_img/22.png\"" width=150 style=\""vertical-align:middle\"">---朋友""]","","",""
"","","","","","html-keyboard-response","177","615698","0.0-9.0-0.0-0.0-0.0-1.58","null","<span style='color:red; font-size: 70px;'>错误! </span>","null","","","","","","","","","","","","","","","","","","","","","","","","","feedback_test","",""
"","","","","","psychophysics","178","617215","0.0-9.0-0.0-0.0-0.0-0.59","513","","arrowright","","","","","","","","","","","","","key","arrowright","16.650561797751763","630","416","arrowright","true","../../test_img/15.png","生人","matching_task","生人","[""<img src=\""../../test_img/15.png\"" width=150 style=\""vertical-align:middle\"">---生人"",""<img src=\""../../test_img/26.png\"" width=150 style=\""vertical-align:middle\"">---自我"",""<img src=\""../../test_img/22.png\"" width=150 style=\""vertical-align:middle\"">---朋友""]","","",""
"","","","","","html-keyboard-response","179","617727","0.0-9.0-0.0-0.0-0.0-1.59","null","<span style='color:GreenYellow; font-size: 70px;'>正确! </span>","null","","","","","","","","","","","","","","","","","","","","","","","","","feedback_test","",""
"","","","","","psychophysics","180","619418","0.0-9.0-0.0-0.0-0.0-0.60","687","","arrowleft","","","","","","","","","","","","","key","arrowleft","16.666666666666668","630","416","arrowleft","true","../../test_img/22.png","自我","matching_task","朋友","[""<img src=\""../../test_img/15.png\"" width=150 style=\""vertical-align:middle\"">---生人"",""<img src=\""../../test_img/26.png\"" width=150 style=\""vertical-align:middle\"">---自我"",""<img src=\""../../test_img/22.png\"" width=150 style=\""vertical-align:middle\"">---朋友""]","","",""
"","","","","","html-keyboard-response","181","619933","0.0-9.0-0.0-0.0-0.0-1.60","null","<span style='color:GreenYellow; font-size: 70px;'>正确! </span>","null","","","","","","","","","","","","","","","","","","","","","","","","","feedback_test","",""
"","","","","","psychophysics","182","621501","0.0-9.0-0.0-0.0-0.0-0.61","566","","arrowright","","","","","","","","","","","","","key","arrowright","16.647826086956268","630","416","arrowright","true","../../test_img/26.png","自我","matching_task","自我","[""<img src=\""../../test_img/15.png\"" width=150 style=\""vertical-align:middle\"">---生人"",""<img src=\""../../test_img/26.png\"" width=150 style=\""vertical-align:middle\"">---自我"",""<img src=\""../../test_img/22.png\"" width=150 style=\""vertical-align:middle\"">---朋友""]","","",""
"","","","","","html-keyboard-response","183","622013","0.0-9.0-0.0-0.0-0.0-1.61","null","<span style='color:GreenYellow; font-size: 70px;'>正确! </span>","null","","","","","","","","","","","","","","","","","","","","","","","","","feedback_test","",""
"","","","","","psychophysics","184","623483","0.0-9.0-0.0-0.0-0.0-0.62","466","","arrowright","","","","","","","","","","","","","key","arrowright","16.667816091953757","630","416","arrowright","true","../../test_img/26.png","自我","matching_task","自我","[""<img src=\""../../test_img/15.png\"" width=150 style=\""vertical-align:middle\"">---生人"",""<img src=\""../../test_img/26.png\"" width=150 style=\""vertical-align:middle\"">---自我"",""<img src=\""../../test_img/22.png\"" width=150 style=\""vertical-align:middle\"">---朋友""]","","",""
"","","","","","html-keyboard-response","185","623999","0.0-9.0-0.0-0.0-0.0-1.62","null","<span style='color:GreenYellow; font-size: 70px;'>正确! </span>","null","","","","","","","","","","","","","","","","","","","","","","","","","feedback_test","",""
"","","","","","psychophysics","186","625586","0.0-9.0-0.0-0.0-0.0-0.63","585","","arrowleft","","","","","","","","","","","","","key","arrowleft","16.668085106382236","630","416","arrowleft","true","../../test_img/15.png","朋友","matching_task","生人","[""<img src=\""../../test_img/15.png\"" width=150 style=\""vertical-align:middle\"">---生人"",""<img src=\""../../test_img/26.png\"" width=150 style=\""vertical-align:middle\"">---自我"",""<img src=\""../../test_img/22.png\"" width=150 style=\""vertical-align:middle\"">---朋友""]","","",""
"","","","","","html-keyboard-response","187","626092","0.0-9.0-0.0-0.0-0.0-1.63","null","<span style='color:GreenYellow; font-size: 70px;'>正确! </span>","null","","","","","","","","","","","","","","","","","","","","","","","","","feedback_test","",""
"","","","","","psychophysics","188","627693","0.0-9.0-0.0-0.0-0.0-0.64","596","","arrowright","","","","","","","","","","","","","key","arrowright","16.667368421051652","630","416","arrowright","true","../../test_img/22.png","朋友","matching_task","朋友","[""<img src=\""../../test_img/15.png\"" width=150 style=\""vertical-align:middle\"">---生人"",""<img src=\""../../test_img/26.png\"" width=150 style=\""vertical-align:middle\"">---自我"",""<img src=\""../../test_img/22.png\"" width=150 style=\""vertical-align:middle\"">---朋友""]","","",""
"","","","","","html-keyboard-response","189","628208","0.0-9.0-0.0-0.0-0.0-1.64","null","<span style='color:GreenYellow; font-size: 70px;'>正确! </span>","null","","","","","","","","","","","","","","","","","","","","","","","","","feedback_test","",""
"","","","","","psychophysics","190","629810","0.0-9.0-0.0-0.0-0.0-0.65","599","","arrowleft","","","","","","","","","","","","","key","arrowleft","16.667368421051652","630","416","arrowleft","true","../../test_img/26.png","生人","matching_task","自我","[""<img src=\""../../test_img/15.png\"" width=150 style=\""vertical-align:middle\"">---生人"",""<img src=\""../../test_img/26.png\"" width=150 style=\""vertical-align:middle\"">---自我"",""<img src=\""../../test_img/22.png\"" width=150 style=\""vertical-align:middle\"">---朋友""]","","",""
"","","","","","html-keyboard-response","191","630312","0.0-9.0-0.0-0.0-0.0-1.65","null","<span style='color:GreenYellow; font-size: 70px;'>正确! </span>","null","","","","","","","","","","","","","","","","","","","","","","","","","feedback_test","",""
"","","","","","psychophysics","192","631966","0.0-9.0-0.0-0.0-0.0-0.66","647","","arrowleft","","","","","","","","","","","","","key","arrowleft","16.66734693877456","630","416","arrowleft","true","../../test_img/26.png","朋友","matching_task","自我","[""<img src=\""../../test_img/15.png\"" width=150 style=\""vertical-align:middle\"">---生人"",""<img src=\""../../test_img/26.png\"" width=150 style=\""vertical-align:middle\"">---自我"",""<img src=\""../../test_img/22.png\"" width=150 style=\""vertical-align:middle\"">---朋友""]","","",""
"","","","","","html-keyboard-response","193","632467","0.0-9.0-0.0-0.0-0.0-1.66","null","<span style='color:GreenYellow; font-size: 70px;'>正确! </span>","null","","","","","","","","","","","","","","","","","","","","","","","","","feedback_test","",""
"","","","","","psychophysics","194","634258","0.0-9.0-0.0-0.0-0.0-0.67","790","","arrowleft","","","","","","","","","","","","","key","arrowleft","16.66415094339535","630","416","arrowleft","true","../../test_img/15.png","自我","matching_task","生人","[""<img src=\""../../test_img/15.png\"" width=150 style=\""vertical-align:middle\"">---生人"",""<img src=\""../../test_img/26.png\"" width=150 style=\""vertical-align:middle\"">---自我"",""<img src=\""../../test_img/22.png\"" width=150 style=\""vertical-align:middle\"">---朋友""]","","",""
"","","","","","html-keyboard-response","195","634760","0.0-9.0-0.0-0.0-0.0-1.67","null","<span style='color:GreenYellow; font-size: 70px;'>正确! </span>","null","","","","","","","","","","","","","","","","","","","","","","","","","feedback_test","",""
"","","","","","psychophysics","196","636447","0.0-9.0-0.0-0.0-0.0-0.68","679","","arrowright","","","","","","","","","","","","","key","arrowright","16.666999999999533","630","416","arrowright","true","../../test_img/15.png","生人","matching_task","生人","[""<img src=\""../../test_img/15.png\"" width=150 style=\""vertical-align:middle\"">---生人"",""<img src=\""../../test_img/26.png\"" width=150 style=\""vertical-align:middle\"">---自我"",""<img src=\""../../test_img/22.png\"" width=150 style=\""vertical-align:middle\"">---朋友""]","","",""
"","","","","","html-keyboard-response","197","636962","0.0-9.0-0.0-0.0-0.0-1.68","null","<span style='color:GreenYellow; font-size: 70px;'>正确! </span>","null","","","","","","","","","","","","","","","","","","","","","","","","","feedback_test","",""
"","","","","","psychophysics","198","638542","0.0-9.0-0.0-0.0-0.0-0.69","573","","arrowleft","","","","","","","","","","","","","key","arrowleft","16.666666666666668","630","416","arrowleft","true","../../test_img/22.png","生人","matching_task","朋友","[""<img src=\""../../test_img/15.png\"" width=150 style=\""vertical-align:middle\"">---生人"",""<img src=\""../../test_img/26.png\"" width=150 style=\""vertical-align:middle\"">---自我"",""<img src=\""../../test_img/22.png\"" width=150 style=\""vertical-align:middle\"">---朋友""]","","",""
"","","","","","html-keyboard-response","199","639042","0.0-9.0-0.0-0.0-0.0-1.69","null","<span style='color:GreenYellow; font-size: 70px;'>正确! </span>","null","","","","","","","","","","","","","","","","","","","","","","","","","feedback_test","",""
"","","","","","psychophysics","200","640582","0.0-9.0-0.0-0.0-0.0-0.70","531","","arrowright","","","","","","","","","","","","","key","arrowright","16.667032967033734","630","416","arrowright","true","../../test_img/22.png","朋友","matching_task","朋友","[""<img src=\""../../test_img/15.png\"" width=150 style=\""vertical-align:middle\"">---生人"",""<img src=\""../../test_img/26.png\"" width=150 style=\""vertical-align:middle\"">---自我"",""<img src=\""../../test_img/22.png\"" width=150 style=\""vertical-align:middle\"">---朋友""]","","",""
"","","","","","html-keyboard-response","201","641094","0.0-9.0-0.0-0.0-0.0-1.70","null","<span style='color:GreenYellow; font-size: 70px;'>正确! </span>","null","","","","","","","","","","","","","","","","","","","","","","","","","feedback_test","",""
"","","","","","psychophysics","202","642685","0.0-9.0-0.0-0.0-0.0-0.71","583","","arrowleft","","","","","","","","","","","","","key","arrowleft","16.668085106383476","630","416","arrowright","false","../../test_img/15.png","生人","matching_task","生人","[""<img src=\""../../test_img/15.png\"" width=150 style=\""vertical-align:middle\"">---生人"",""<img src=\""../../test_img/26.png\"" width=150 style=\""vertical-align:middle\"">---自我"",""<img src=\""../../test_img/22.png\"" width=150 style=\""vertical-align:middle\"">---朋友""]","","",""
"","","","","","html-keyboard-response","203","643187","0.0-9.0-0.0-0.0-0.0-1.71","null","<span style='color:red; font-size: 70px;'>错误! </span>","null","","","","","","","","","","","","","","","","","","","","","","","","","feedback_test","",""
"","","","","","html-keyboard-response","204","646952","0.0-9.0-0.0-0.0-1.0","3763","<style>.context{color:white; font-size: 35px; line-height:40px}</style>                          <div><p class='context'>您正确回答了90% 的试次。</p><p class='context'>您的平均反应时为635毫秒。</p><p class='context'>请按任意键进入休息</p></div>","arrowleft","","","","","","","","","","","","","","","","","","","","","","","","","","",""
"","","","","","html-button-response","205","708155","0.0-9.0-0.0-0.0-2.0","61199","
                    <p>知觉匹配任务中，您还剩余4组实验</p>
                    <p>现在是休息时间，当您结束休息后，您可以点击 结束休息 按钮 继续</p>
                    <p>建议休息时间还剩余<span id=""iii"">60</span>秒</p>","0","","","","","","","","","","","","","","","","","","","","","","","","","","",""
"","","","","","psychophysics","206","709849","0.0-9.0-0.0-0.0-0.1-0.72","686","","arrowleft","","","","","","","","","","","","","key","arrowleft","16.667999999999303","630","416","arrowleft","true","../../test_img/15.png","朋友","matching_task","生人","[""<img src=\""../../test_img/15.png\"" width=150 style=\""vertical-align:middle\"">---生人"",""<img src=\""../../test_img/26.png\"" width=150 style=\""vertical-align:middle\"">---自我"",""<img src=\""../../test_img/22.png\"" width=150 style=\""vertical-align:middle\"">---朋友""]","","",""
"","","","","","html-keyboard-response","207","710351","0.0-9.0-0.0-0.0-0.1-1.72","null","<span style='color:GreenYellow; font-size: 70px;'>正确! </span>","null","","","","","","","","","","","","","","","","","","","","","","","","","feedback_test","",""
"","","","","","psychophysics","208","711971","0.0-9.0-0.0-0.0-0.1-0.73","619","","arrowleft","","","","","","","","","","","","","key","arrowleft","16.668749999999516","630","416","arrowleft","true","../../test_img/22.png","自我","matching_task","朋友","[""<img src=\""../../test_img/15.png\"" width=150 style=\""vertical-align:middle\"">---生人"",""<img src=\""../../test_img/26.png\"" width=150 style=\""vertical-align:middle\"">---自我"",""<img src=\""../../test_img/22.png\"" width=150 style=\""vertical-align:middle\"">---朋友""]","","",""
"","","","","","html-keyboard-response","209","712475","0.0-9.0-0.0-0.0-0.1-1.73","null","<span style='color:GreenYellow; font-size: 70px;'>正确! </span>","null","","","","","","","","","","","","","","","","","","","","","","","","","feedback_test","",""
"","","","","","psychophysics","210","713941","0.0-9.0-0.0-0.0-0.1-0.74","452","","arrowright","","","","","","","","","","","","","key","arrowright","16.666666666666668","630","416","arrowright","true","../../test_img/26.png","自我","matching_task","自我","[""<img src=\""../../test_img/15.png\"" width=150 style=\""vertical-align:middle\"">---生人"",""<img src=\""../../test_img/26.png\"" width=150 style=\""vertical-align:middle\"">---自我"",""<img src=\""../../test_img/22.png\"" width=150 style=\""vertical-align:middle\"">---朋友""]","","",""
"","","","","","html-keyboard-response","211","714448","0.0-9.0-0.0-0.0-0.1-1.74","null","<span style='color:GreenYellow; font-size: 70px;'>正确! </span>","null","","","","","","","","","","","","","","","","","","","","","","","","","feedback_test","",""
"","","","","","psychophysics","212","715949","0.0-9.0-0.0-0.0-0.1-0.75","498","","arrowleft","","","","","","","","","","","","","key","arrowleft","16.66501123595491","630","416","arrowleft","true","../../test_img/26.png","生人","matching_task","自我","[""<img src=\""../../test_img/15.png\"" width=150 style=\""vertical-align:middle\"">---生人"",""<img src=\""../../test_img/26.png\"" width=150 style=\""vertical-align:middle\"">---自我"",""<img src=\""../../test_img/22.png\"" width=150 style=\""vertical-align:middle\"">---朋友""]","","",""
"","","","","","html-keyboard-response","213","716451","0.0-9.0-0.0-0.0-0.1-1.75","null","<span style='color:GreenYellow; font-size: 70px;'>正确! </span>","null","","","","","","","","","","","","","","","","","","","","","","","","","feedback_test","",""
"","","","","","psychophysics","214","718156","0.0-9.0-0.0-0.0-0.1-0.76","704","","arrowright","","","","","","","","","","","","","key","arrowright","16.66960784313771","630","416","arrowright","true","../../test_img/15.png","生人","matching_task","生人","[""<img src=\""../../test_img/15.png\"" width=150 style=\""vertical-align:middle\"">---生人"",""<img src=\""../../test_img/26.png\"" width=150 style=\""vertical-align:middle\"">---自我"",""<img src=\""../../test_img/22.png\"" width=150 style=\""vertical-align:middle\"">---朋友""]","","",""
"","","","","","html-keyboard-response","215","718662","0.0-9.0-0.0-0.0-0.1-1.76","null","<span style='color:GreenYellow; font-size: 70px;'>正确! </span>","null","","","","","","","","","","","","","","","","","","","","","","","","","feedback_test","",""
"","","","","","psychophysics","216","720224","0.0-9.0-0.0-0.0-0.1-0.77","556","","arrowleft","","","","","","","","","","","","","key","arrowleft","16.664130434782354","630","416","arrowleft","true","../../test_img/15.png","自我","matching_task","生人","[""<img src=\""../../test_img/15.png\"" width=150 style=\""vertical-align:middle\"">---生人"",""<img src=\""../../test_img/26.png\"" width=150 style=\""vertical-align:middle\"">---自我"",""<img src=\""../../test_img/22.png\"" width=150 style=\""vertical-align:middle\"">---朋友""]","","",""
"","","","","","html-keyboard-response","217","720731","0.0-9.0-0.0-0.0-0.1-1.77","null","<span style='color:GreenYellow; font-size: 70px;'>正确! </span>","null","","","","","","","","","","","","","","","","","","","","","","","","","feedback_test","",""
"","","","","","psychophysics","218","722264","0.0-9.0-0.0-0.0-0.1-0.78","530","","arrowleft","","","","","","","","","","","","","key","arrowleft","16.658888888888114","630","416","arrowleft","true","../../test_img/26.png","朋友","matching_task","自我","[""<img src=\""../../test_img/15.png\"" width=150 style=\""vertical-align:middle\"">---生人"",""<img src=\""../../test_img/26.png\"" width=150 style=\""vertical-align:middle\"">---自我"",""<img src=\""../../test_img/22.png\"" width=150 style=\""vertical-align:middle\"">---朋友""]","","",""
"","","","","","html-keyboard-response","219","722771","0.0-9.0-0.0-0.0-0.1-1.78","null","<span style='color:GreenYellow; font-size: 70px;'>正确! </span>","null","","","","","","","","","","","","","","","","","","","","","","","","","feedback_test","",""
"","","","","","psychophysics","220","724294","0.0-9.0-0.0-0.0-0.1-0.79","512","","arrowright","","","","","","","","","","","","","key","arrowright","16.666666666666668","630","416","arrowright","true","../../test_img/22.png","朋友","matching_task","朋友","[""<img src=\""../../test_img/15.png\"" width=150 style=\""vertical-align:middle\"">---生人"",""<img src=\""../../test_img/26.png\"" width=150 style=\""vertical-align:middle\"">---自我"",""<img src=\""../../test_img/22.png\"" width=150 style=\""vertical-align:middle\"">---朋友""]","","",""
"","","","","","html-keyboard-response","221","724805","0.0-9.0-0.0-0.0-0.1-1.79","null","<span style='color:GreenYellow; font-size: 70px;'>正确! </span>","null","","","","","","","","","","","","","","","","","","","","","","","","","feedback_test","",""
"","","","","","psychophysics","222","726490","0.0-9.0-0.0-0.0-0.1-0.80","672","","arrowleft","","","","","","","","","","","","","key","arrowleft","16.666999999999533","630","416","arrowleft","true","../../test_img/22.png","生人","matching_task","朋友","[""<img src=\""../../test_img/15.png\"" width=150 style=\""vertical-align:middle\"">---生人"",""<img src=\""../../test_img/26.png\"" width=150 style=\""vertical-align:middle\"">---自我"",""<img src=\""../../test_img/22.png\"" width=150 style=\""vertical-align:middle\"">---朋友""]","","",""
"","","","","","html-keyboard-response","223","727002","0.0-9.0-0.0-0.0-0.1-1.80","null","<span style='color:GreenYellow; font-size: 70px;'>正确! </span>","null","","","","","","","","","","","","","","","","","","","","","","","","","feedback_test","",""
"","","","","","psychophysics","224","728386","0.0-9.0-0.0-0.0-0.1-0.81","383","","arrowright","","","","","","","","","","","","","key","arrowright","16.66707317073114","630","416","arrowright","true","../../test_img/26.png","自我","matching_task","自我","[""<img src=\""../../test_img/15.png\"" width=150 style=\""vertical-align:middle\"">---生人"",""<img src=\""../../test_img/26.png\"" width=150 style=\""vertical-align:middle\"">---自我"",""<img src=\""../../test_img/22.png\"" width=150 style=\""vertical-align:middle\"">---朋友""]","","",""
"","","","","","html-keyboard-response","225","728896","0.0-9.0-0.0-0.0-0.1-1.81","null","<span style='color:GreenYellow; font-size: 70px;'>正确! </span>","null","","","","","","","","","","","","","","","","","","","","","","","","","feedback_test","",""
"","","","","","psychophysics","226","730435","0.0-9.0-0.0-0.0-0.1-0.82","533","","arrowright","","","","","","","","","","","","","key","arrowright","16.66593406593381","630","416","arrowright","true","../../test_img/15.png","生人","matching_task","生人","[""<img src=\""../../test_img/15.png\"" width=150 style=\""vertical-align:middle\"">---生人"",""<img src=\""../../test_img/26.png\"" width=150 style=\""vertical-align:middle\"">---自我"",""<img src=\""../../test_img/22.png\"" width=150 style=\""vertical-align:middle\"">---朋友""]","","",""
"","","","","","html-keyboard-response","227","730943","0.0-9.0-0.0-0.0-0.1-1.82","null","<span style='color:GreenYellow; font-size: 70px;'>正确! </span>","null","","","","","","","","","","","","","","","","","","","","","","","","","feedback_test","",""
"","","","","","psychophysics","228","732530","0.0-9.0-0.0-0.0-0.1-0.83","581","","arrowright","","","","","","","","","","","","","key","arrowright","16.66774193548362","630","416","arrowright","true","../../test_img/22.png","朋友","matching_task","朋友","[""<img src=\""../../test_img/15.png\"" width=150 style=\""vertical-align:middle\"">---生人"",""<img src=\""../../test_img/26.png\"" width=150 style=\""vertical-align:middle\"">---自我"",""<img src=\""../../test_img/22.png\"" width=150 style=\""vertical-align:middle\"">---朋友""]","","",""
"","","","","","html-keyboard-response","229","733040","0.0-9.0-0.0-0.0-0.1-1.83","null","<span style='color:GreenYellow; font-size: 70px;'>正确! </span>","null","","","","","","","","","","","","","","","","","","","","","","","","","feedback_test","",""
"","","","","","psychophysics","230","734647","0.0-9.0-0.0-0.0-0.1-0.84","597","","arrowleft","","","","","","","","","","","","","key","arrowleft","16.667368421052878","630","416","arrowleft","true","../../test_img/26.png","生人","matching_task","自我","[""<img src=\""../../test_img/15.png\"" width=150 style=\""vertical-align:middle\"">---生人"",""<img src=\""../../test_img/26.png\"" width=150 style=\""vertical-align:middle\"">---自我"",""<img src=\""../../test_img/22.png\"" width=150 style=\""vertical-align:middle\"">---朋友""]","","",""
"","","","","","html-keyboard-response","231","735156","0.0-9.0-0.0-0.0-0.1-1.84","null","<span style='color:GreenYellow; font-size: 70px;'>正确! </span>","null","","","","","","","","","","","","","","","","","","","","","","","","","feedback_test","",""
"","","","","","psychophysics","232","736674","0.0-9.0-0.0-0.0-0.1-0.85","511","","arrowright","","","","","","","","","","","","","key","arrowright","16.66777777777752","630","416","arrowright","true","../../test_img/15.png","生人","matching_task","生人","[""<img src=\""../../test_img/15.png\"" width=150 style=\""vertical-align:middle\"">---生人"",""<img src=\""../../test_img/26.png\"" width=150 style=\""vertical-align:middle\"">---自我"",""<img src=\""../../test_img/22.png\"" width=150 style=\""vertical-align:middle\"">---朋友""]","","",""
"","","","","","html-keyboard-response","233","737187","0.0-9.0-0.0-0.0-0.1-1.85","null","<span style='color:GreenYellow; font-size: 70px;'>正确! </span>","null","","","","","","","","","","","","","","","","","","","","","","","","","feedback_test","",""
"","","","","","psychophysics","234","738585","0.0-9.0-0.0-0.0-0.1-0.86","390","","arrowright","","","","","","","","","","","","","key","arrowright","16.667469879518354","630","416","arrowright","true","../../test_img/26.png","自我","matching_task","自我","[""<img src=\""../../test_img/15.png\"" width=150 style=\""vertical-align:middle\"">---生人"",""<img src=\""../../test_img/26.png\"" width=150 style=\""vertical-align:middle\"">---自我"",""<img src=\""../../test_img/22.png\"" width=150 style=\""vertical-align:middle\"">---朋友""]","","",""
"","","","","","html-keyboard-response","235","739097","0.0-9.0-0.0-0.0-0.1-1.86","null","<span style='color:GreenYellow; font-size: 70px;'>正确! </span>","null","","","","","","","","","","","","","","","","","","","","","","","","","feedback_test","",""
"","","","","","psychophysics","236","740733","0.0-9.0-0.0-0.0-0.1-0.87","631","","arrowright","","","","","","","","","","","","","key","arrowright","16.66185567010381","630","416","arrowright","true","../../test_img/15.png","生人","matching_task","生人","[""<img src=\""../../test_img/15.png\"" width=150 style=\""vertical-align:middle\"">---生人"",""<img src=\""../../test_img/26.png\"" width=150 style=\""vertical-align:middle\"">---自我"",""<img src=\""../../test_img/22.png\"" width=150 style=\""vertical-align:middle\"">---朋友""]","","",""
"","","","","","html-keyboard-response","237","741242","0.0-9.0-0.0-0.0-0.1-1.87","null","<span style='color:GreenYellow; font-size: 70px;'>正确! </span>","null","","","","","","","","","","","","","","","","","","","","","","","","","feedback_test","",""
"","","","","","psychophysics","238","742675","0.0-9.0-0.0-0.0-0.1-0.88","420","","arrowright","","","","","","","","","","","","","key","arrowright","16.6658823529409","630","416","arrowright","true","../../test_img/26.png","自我","matching_task","自我","[""<img src=\""../../test_img/15.png\"" width=150 style=\""vertical-align:middle\"">---生人"",""<img src=\""../../test_img/26.png\"" width=150 style=\""vertical-align:middle\"">---自我"",""<img src=\""../../test_img/22.png\"" width=150 style=\""vertical-align:middle\"">---朋友""]","","",""
"","","","","","html-keyboard-response","239","743183","0.0-9.0-0.0-0.0-0.1-1.88","null","<span style='color:GreenYellow; font-size: 70px;'>正确! </span>","null","","","","","","","","","","","","","","","","","","","","","","","","","feedback_test","",""
"","","","","","psychophysics","240","744801","0.0-9.0-0.0-0.0-0.1-0.89","616","","arrowleft","","","","","","","","","","","","","key","arrowleft","16.667368421051652","630","416","arrowleft","true","../../test_img/15.png","自我","matching_task","生人","[""<img src=\""../../test_img/15.png\"" width=150 style=\""vertical-align:middle\"">---生人"",""<img src=\""../../test_img/26.png\"" width=150 style=\""vertical-align:middle\"">---自我"",""<img src=\""../../test_img/22.png\"" width=150 style=\""vertical-align:middle\"">---朋友""]","","",""
"","","","","","html-keyboard-response","241","745314","0.0-9.0-0.0-0.0-0.1-1.89","null","<span style='color:GreenYellow; font-size: 70px;'>正确! </span>","null","","","","","","","","","","","","","","","","","","","","","","","","","feedback_test","",""
"","","","","","psychophysics","242","746815","0.0-9.0-0.0-0.0-0.1-0.90","497","","arrowright","","","","","","","","","","","","","key","arrowright","16.676136363636363","630","416","arrowleft","false","../../test_img/22.png","生人","matching_task","朋友","[""<img src=\""../../test_img/15.png\"" width=150 style=\""vertical-align:middle\"">---生人"",""<img src=\""../../test_img/26.png\"" width=150 style=\""vertical-align:middle\"">---自我"",""<img src=\""../../test_img/22.png\"" width=150 style=\""vertical-align:middle\"">---朋友""]","","",""
"","","","","","html-keyboard-response","243","747321","0.0-9.0-0.0-0.0-0.1-1.90","null","<span style='color:red; font-size: 70px;'>错误! </span>","null","","","","","","","","","","","","","","","","","","","","","","","","","feedback_test","",""
"","","","","","psychophysics","244","748829","0.0-9.0-0.0-0.0-0.1-0.91","494","","arrowright","","","","","","","","","","","","","key","arrowright","16.671910112360074","630","416","arrowleft","false","../../test_img/22.png","自我","matching_task","朋友","[""<img src=\""../../test_img/15.png\"" width=150 style=\""vertical-align:middle\"">---生人"",""<img src=\""../../test_img/26.png\"" width=150 style=\""vertical-align:middle\"">---自我"",""<img src=\""../../test_img/22.png\"" width=150 style=\""vertical-align:middle\"">---朋友""]","","",""
"","","","","","html-keyboard-response","245","749332","0.0-9.0-0.0-0.0-0.1-1.91","null","<span style='color:red; font-size: 70px;'>错误! </span>","null","","","","","","","","","","","","","","","","","","","","","","","","","feedback_test","",""
"","","","","","psychophysics","246","750924","0.0-9.0-0.0-0.0-0.1-0.92","588","","arrowright","","","","","","","","","","","","","key","arrowright","16.66382978723429","630","416","arrowright","true","../../test_img/22.png","朋友","matching_task","朋友","[""<img src=\""../../test_img/15.png\"" width=150 style=\""vertical-align:middle\"">---生人"",""<img src=\""../../test_img/26.png\"" width=150 style=\""vertical-align:middle\"">---自我"",""<img src=\""../../test_img/22.png\"" width=150 style=\""vertical-align:middle\"">---朋友""]","","",""
"","","","","","html-keyboard-response","247","751429","0.0-9.0-0.0-0.0-0.1-1.92","null","<span style='color:GreenYellow; font-size: 70px;'>正确! </span>","null","","","","","","","","","","","","","","","","","","","","","","","","","feedback_test","",""
"","","","","","psychophysics","248","752940","0.0-9.0-0.0-0.0-0.1-0.93","505","","arrowright","","","","","","","","","","","","","key","arrowright","16.664044943819963","630","416","arrowleft","false","../../test_img/26.png","朋友","matching_task","自我","[""<img src=\""../../test_img/15.png\"" width=150 style=\""vertical-align:middle\"">---生人"",""<img src=\""../../test_img/26.png\"" width=150 style=\""vertical-align:middle\"">---自我"",""<img src=\""../../test_img/22.png\"" width=150 style=\""vertical-align:middle\"">---朋友""]","","",""
"","","","","","html-keyboard-response","249","753449","0.0-9.0-0.0-0.0-0.1-1.93","null","<span style='color:red; font-size: 70px;'>错误! </span>","null","","","","","","","","","","","","","","","","","","","","","","","","","feedback_test","",""
"","","","","","psychophysics","250","755043","0.0-9.0-0.0-0.0-0.1-0.94","592","","arrowright","","","","","","","","","","","","","key","arrowright","16.664893617021278","630","416","arrowright","true","../../test_img/22.png","朋友","matching_task","朋友","[""<img src=\""../../test_img/15.png\"" width=150 style=\""vertical-align:middle\"">---生人"",""<img src=\""../../test_img/26.png\"" width=150 style=\""vertical-align:middle\"">---自我"",""<img src=\""../../test_img/22.png\"" width=150 style=\""vertical-align:middle\"">---朋友""]","","",""
"","","","","","html-keyboard-response","251","755546","0.0-9.0-0.0-0.0-0.1-1.94","null","<span style='color:GreenYellow; font-size: 70px;'>正确! </span>","null","","","","","","","","","","","","","","","","","","","","","","","","","feedback_test","",""
"","","","","","psychophysics","252","757104","0.0-9.0-0.0-0.0-0.1-0.95","553","","arrowleft","","","","","","","","","","","","","key","arrowleft","16.675268817204802","630","416","arrowleft","true","../../test_img/15.png","朋友","matching_task","生人","[""<img src=\""../../test_img/15.png\"" width=150 style=\""vertical-align:middle\"">---生人"",""<img src=\""../../test_img/26.png\"" width=150 style=\""vertical-align:middle\"">---自我"",""<img src=\""../../test_img/22.png\"" width=150 style=\""vertical-align:middle\"">---朋友""]","","",""
"","","","","","html-keyboard-response","253","757620","0.0-9.0-0.0-0.0-0.1-1.95","null","<span style='color:GreenYellow; font-size: 70px;'>正确! </span>","null","","","","","","","","","","","","","","","","","","","","","","","","","feedback_test","",""
"","","","","","psychophysics","254","759318","0.0-9.0-0.0-0.0-0.1-0.96","688","","arrowleft","","","","","","","","","","","","","key","arrowleft","16.668000000000465","630","416","arrowleft","true","../../test_img/26.png","生人","matching_task","自我","[""<img src=\""../../test_img/15.png\"" width=150 style=\""vertical-align:middle\"">---生人"",""<img src=\""../../test_img/26.png\"" width=150 style=\""vertical-align:middle\"">---自我"",""<img src=\""../../test_img/22.png\"" width=150 style=\""vertical-align:middle\"">---朋友""]","","",""
"","","","","","html-keyboard-response","255","759827","0.0-9.0-0.0-0.0-0.1-1.96","null","<span style='color:GreenYellow; font-size: 70px;'>正确! </span>","null","","","","","","","","","","","","","","","","","","","","","","","","","feedback_test","",""
