"success","timeout","failed_images","failed_audio","failed_video","trial_type","trial_index","time_elapsed","internal_node_id","rt","stimulus","response","value","item_width_mm","item_height_mm","item_width_px","px2mm","view_dist_mm","item_width_deg","px2deg","scale_factor","win_width_deg","win_height_deg","view_history","response_type","key_press","avg_frame_time","center_x","center_y","correct_response","correct","Image","word","condition","shape","association","screen_id","LeftLable","RightLable"
"true","false","[]","[]","[]","preload","0","5","0.0-0.0","","","","","","","","","","","","","","","","","","","","","","","","","","","","","",""
"","","","","","html-keyboard-response","1","3127","0.0-1.0","3121","
     <p>您好，欢迎参加本次实验。</p>
     <p>为充分保障您的权利，请确保您已经知晓并同意《参与实验同意书》以及《数据公开知情同意书》。</p>
     <p>如果您未见过上述内容，请咨询实验员。</p>
     <p>如果您选择继续实验，则表示您已经清楚两份知情同意书的内容并同意。</p>
     <p> <div style = ""color: green""><按任意键至下页></div> </p>
     "," ","","","","","","","","","","","","","","","","","","","","","","","","","","",""
"","","","","","html-keyboard-response","2","3871","0.0-2.0","744","
     <p>本实验首先需要您填写一些基本个人信息。</p>
     <p> <div style = ""color: green""><按任意键至下页></div></p>
     "," ","","","","","","","","","","","","","","","","","","","","","","","","","","",""
"","","","","","call-function","3","3872","0.0-3.0-0.0","","","","","","","","","","","","","","","","","","","","","","","","","","","","","",""
"","","","","","survey-html-form","4","7648","0.0-3.0-1.0","3775","","{""Q0"":""12""}","","","","","","","","","","","","","","","","","","","","","","","","","","",""
"","","","","","html-button-response","5","8540","0.0-3.0-2.0","890","<p style = 'color : white'>您的性别</p>","1","","","","","","","","","","","","","","","","","","","","","","","","","","",""
"","","","","","survey-html-form","6","11972","0.0-3.0-3.0","3431","","{""Q0"":""2000""}","","","","","","","","","","","","","","","","","","","","","","","","","","",""
"","","","","","survey-html-form","7","13952","0.0-3.0-4.0","1979","","{""Q0"":""6""}","","","","","","","","","","","","","","","","","","","","","","","","","","",""
"","","","","","virtual-chinrest","8","76380","0.0-4.0","62427","","","","85.6","53.98","441.9115975819223","5.159491427265376","553.82","8.838231951638447","50","0.8644262836509607","25.6","12.64","","","","","","","","","","","","","","","",""
"true","","","","","fullscreen","9","80054","0.0-5.0","","","","","","","","","","","","","","","","","","","","","","","","","","","","","",""
"","","","","","instructions","10","153764","0.0-6.0","73709","","","","","","","","","","","","","","[{""page_index"":0,""viewing_time"":11689},{""page_index"":1,""viewing_time"":23912},{""page_index"":2,""viewing_time"":19901},{""page_index"":3,""viewing_time"":8742},{""page_index"":2,""viewing_time"":4236},{""page_index"":3,""viewing_time"":1827},{""page_index"":4,""viewing_time"":3402}]","","","","","","","","","","","","","","",""
"","","","","","psychophysics","11","155639","0.0-7.0-0.0-0.0","868","","arrowleft","","","","","","","","","","","","","key","arrowleft","16.669392857142935","640","356","arrowleft","true","../../test_img/12.png","自我","prac_matching_task","自我","[""<img src=\""../../test_img/12.png\"" width=150 style=\""vertical-align:middle\"">---自我"",""<img src=\""../../test_img/25.png\"" width=150 style=\""vertical-align:middle\"">---生人"",""<img src=\""../../test_img/19.png\"" width=150 style=\""vertical-align:middle\"">---朋友""]","","",""
"","","","","","html-keyboard-response","12","155944","0.0-7.0-0.0-1.0","null","<span style='color:GreenYellow; font-size: 70px;'>正确! </span>","null","","","","","","","","","","","","","","","","","","","","","","","","","feedback_test","",""
"","","","","","psychophysics","13","157679","0.0-7.0-0.0-0.1","719","","arrowleft","","","","","","","","","","","","","key","arrowleft","16.66990291262136","640","356","arrowleft","true","../../test_img/19.png","朋友","prac_matching_task","朋友","[""<img src=\""../../test_img/12.png\"" width=150 style=\""vertical-align:middle\"">---自我"",""<img src=\""../../test_img/25.png\"" width=150 style=\""vertical-align:middle\"">---生人"",""<img src=\""../../test_img/19.png\"" width=150 style=\""vertical-align:middle\"">---朋友""]","","",""
"","","","","","html-keyboard-response","14","157989","0.0-7.0-0.0-1.1","null","<span style='color:GreenYellow; font-size: 70px;'>正确! </span>","null","","","","","","","","","","","","","","","","","","","","","","","","","feedback_test","",""
"","","","","","psychophysics","15","159991","0.0-7.0-0.0-0.2","1001","","arrowright","","","","","","","","","","","","","key","arrowright","16.668907563025257","640","356","arrowright","true","../../test_img/12.png","朋友","prac_matching_task","自我","[""<img src=\""../../test_img/12.png\"" width=150 style=\""vertical-align:middle\"">---自我"",""<img src=\""../../test_img/25.png\"" width=150 style=\""vertical-align:middle\"">---生人"",""<img src=\""../../test_img/19.png\"" width=150 style=\""vertical-align:middle\"">---朋友""]","","",""
"","","","","","html-keyboard-response","16","160303","0.0-7.0-0.0-1.2","null","<span style='color:GreenYellow; font-size: 70px;'>正确! </span>","null","","","","","","","","","","","","","","","","","","","","","","","","","feedback_test","",""
"","","","","","psychophysics","17","162758","0.0-7.0-0.0-0.3","1454","","arrowleft","","","","","","","","","","","","","key","arrowleft","16.66986301369855","640","356","arrowleft","true","../../test_img/25.png","生人","prac_matching_task","生人","[""<img src=\""../../test_img/12.png\"" width=150 style=\""vertical-align:middle\"">---自我"",""<img src=\""../../test_img/25.png\"" width=150 style=\""vertical-align:middle\"">---生人"",""<img src=\""../../test_img/19.png\"" width=150 style=\""vertical-align:middle\"">---朋友""]","","",""
"","","","","","html-keyboard-response","18","163062","0.0-7.0-0.0-1.3","null","<span style='color:GreenYellow; font-size: 70px;'>正确! </span>","null","","","","","","","","","","","","","","","","","","","","","","","","","feedback_test","",""
"","","","","","psychophysics","19","164952","0.0-7.0-0.0-0.4","882","","arrowright","","","","","","","","","","","","","key","arrowright","16.66874999999995","640","356","arrowright","true","../../test_img/25.png","自我","prac_matching_task","生人","[""<img src=\""../../test_img/12.png\"" width=150 style=\""vertical-align:middle\"">---自我"",""<img src=\""../../test_img/25.png\"" width=150 style=\""vertical-align:middle\"">---生人"",""<img src=\""../../test_img/19.png\"" width=150 style=\""vertical-align:middle\"">---朋友""]","","",""
"","","","","","html-keyboard-response","20","165261","0.0-7.0-0.0-1.4","null","<span style='color:GreenYellow; font-size: 70px;'>正确! </span>","null","","","","","","","","","","","","","","","","","","","","","","","","","feedback_test","",""
"","","","","","psychophysics","21","167299","0.0-7.0-0.0-0.5","1029","","arrowleft","","","","","","","","","","","","","key","arrowleft","16.670247933884344","640","356","arrowleft","true","../../test_img/25.png","生人","prac_matching_task","生人","[""<img src=\""../../test_img/12.png\"" width=150 style=\""vertical-align:middle\"">---自我"",""<img src=\""../../test_img/25.png\"" width=150 style=\""vertical-align:middle\"">---生人"",""<img src=\""../../test_img/19.png\"" width=150 style=\""vertical-align:middle\"">---朋友""]","","",""
"","","","","","html-keyboard-response","22","167602","0.0-7.0-0.0-1.5","null","<span style='color:GreenYellow; font-size: 70px;'>正确! </span>","null","","","","","","","","","","","","","","","","","","","","","","","","","feedback_test","",""
"","","","","","psychophysics","23","169344","0.0-7.0-0.0-0.6","738","","arrowright","","","","","","","","","","","","","key","arrowright","16.669346153846092","640","356","arrowright","true","../../test_img/25.png","朋友","prac_matching_task","生人","[""<img src=\""../../test_img/12.png\"" width=150 style=\""vertical-align:middle\"">---自我"",""<img src=\""../../test_img/25.png\"" width=150 style=\""vertical-align:middle\"">---生人"",""<img src=\""../../test_img/19.png\"" width=150 style=\""vertical-align:middle\"">---朋友""]","","",""
"","","","","","html-keyboard-response","24","169659","0.0-7.0-0.0-1.6","null","<span style='color:GreenYellow; font-size: 70px;'>正确! </span>","null","","","","","","","","","","","","","","","","","","","","","","","","","feedback_test","",""
"","","","","","psychophysics","25","171811","0.0-7.0-0.0-0.7","1139","","arrowright","","","","","","","","","","","","","key","arrowright","16.669531249999864","640","356","arrowright","true","../../test_img/12.png","生人","prac_matching_task","自我","[""<img src=\""../../test_img/12.png\"" width=150 style=\""vertical-align:middle\"">---自我"",""<img src=\""../../test_img/25.png\"" width=150 style=\""vertical-align:middle\"">---生人"",""<img src=\""../../test_img/19.png\"" width=150 style=\""vertical-align:middle\"">---朋友""]","","",""
"","","","","","html-keyboard-response","26","172125","0.0-7.0-0.0-1.7","null","<span style='color:GreenYellow; font-size: 70px;'>正确! </span>","null","","","","","","","","","","","","","","","","","","","","","","","","","feedback_test","",""
"","","","","","psychophysics","27","174182","0.0-7.0-0.0-0.8","1055","","arrowright","","","","","","","","","","","","","key","arrowright","16.668852459016442","640","356","arrowright","true","../../test_img/19.png","自我","prac_matching_task","朋友","[""<img src=\""../../test_img/12.png\"" width=150 style=\""vertical-align:middle\"">---自我"",""<img src=\""../../test_img/25.png\"" width=150 style=\""vertical-align:middle\"">---生人"",""<img src=\""../../test_img/19.png\"" width=150 style=\""vertical-align:middle\"">---朋友""]","","",""
"","","","","","html-keyboard-response","28","174484","0.0-7.0-0.0-1.8","null","<span style='color:GreenYellow; font-size: 70px;'>正确! </span>","null","","","","","","","","","","","","","","","","","","","","","","","","","feedback_test","",""
"","","","","","psychophysics","29","176213","0.0-7.0-0.0-0.9","725","","arrowleft","","","","","","","","","","","","","key","arrowleft","16.670873786407824","640","356","arrowleft","true","../../test_img/12.png","自我","prac_matching_task","自我","[""<img src=\""../../test_img/12.png\"" width=150 style=\""vertical-align:middle\"">---自我"",""<img src=\""../../test_img/25.png\"" width=150 style=\""vertical-align:middle\"">---生人"",""<img src=\""../../test_img/19.png\"" width=150 style=\""vertical-align:middle\"">---朋友""]","","",""
"","","","","","html-keyboard-response","30","176526","0.0-7.0-0.0-1.9","null","<span style='color:GreenYellow; font-size: 70px;'>正确! </span>","null","","","","","","","","","","","","","","","","","","","","","","","","","feedback_test","",""
"","","","","","psychophysics","31","178225","0.0-7.0-0.0-0.10","686","","arrowleft","","","","","","","","","","","","","key","arrowleft","16.66930693069313","640","356","arrowleft","true","../../test_img/19.png","朋友","prac_matching_task","朋友","[""<img src=\""../../test_img/12.png\"" width=150 style=\""vertical-align:middle\"">---自我"",""<img src=\""../../test_img/25.png\"" width=150 style=\""vertical-align:middle\"">---生人"",""<img src=\""../../test_img/19.png\"" width=150 style=\""vertical-align:middle\"">---朋友""]","","",""
"","","","","","html-keyboard-response","32","178532","0.0-7.0-0.0-1.10","null","<span style='color:GreenYellow; font-size: 70px;'>正确! </span>","null","","","","","","","","","","","","","","","","","","","","","","","","","feedback_test","",""
"","","","","","psychophysics","33","180289","0.0-7.0-0.0-0.11","748","","arrowright","","","","","","","","","","","","","key","arrowright","16.669230769230825","640","356","arrowright","true","../../test_img/19.png","生人","prac_matching_task","朋友","[""<img src=\""../../test_img/12.png\"" width=150 style=\""vertical-align:middle\"">---自我"",""<img src=\""../../test_img/25.png\"" width=150 style=\""vertical-align:middle\"">---生人"",""<img src=\""../../test_img/19.png\"" width=150 style=\""vertical-align:middle\"">---朋友""]","","",""
"","","","","","html-keyboard-response","34","180604","0.0-7.0-0.0-1.11","null","<span style='color:GreenYellow; font-size: 70px;'>正确! </span>","null","","","","","","","","","","","","","","","","","","","","","","","","","feedback_test","",""
"","","","","","psychophysics","35","182242","0.0-7.0-0.0-0.12","634","","arrowleft","","","","","","","","","","","","","key","arrowleft","16.67087755102025","640","356","arrowleft","true","../../test_img/12.png","自我","prac_matching_task","自我","[""<img src=\""../../test_img/12.png\"" width=150 style=\""vertical-align:middle\"">---自我"",""<img src=\""../../test_img/25.png\"" width=150 style=\""vertical-align:middle\"">---生人"",""<img src=\""../../test_img/19.png\"" width=150 style=\""vertical-align:middle\"">---朋友""]","","",""
"","","","","","html-keyboard-response","36","182549","0.0-7.0-0.0-1.12","null","<span style='color:GreenYellow; font-size: 70px;'>正确! </span>","null","","","","","","","","","","","","","","","","","","","","","","","","","feedback_test","",""
"","","","","","psychophysics","37","184466","0.0-7.0-0.0-0.13","908","","arrowright","","","","","","","","","","","","","key","arrowright","16.668421052631427","640","356","arrowright","true","../../test_img/25.png","朋友","prac_matching_task","生人","[""<img src=\""../../test_img/12.png\"" width=150 style=\""vertical-align:middle\"">---自我"",""<img src=\""../../test_img/25.png\"" width=150 style=\""vertical-align:middle\"">---生人"",""<img src=\""../../test_img/19.png\"" width=150 style=\""vertical-align:middle\"">---朋友""]","","",""
"","","","","","html-keyboard-response","38","184778","0.0-7.0-0.0-1.13","null","<span style='color:GreenYellow; font-size: 70px;'>正确! </span>","null","","","","","","","","","","","","","","","","","","","","","","","","","feedback_test","",""
"","","","","","psychophysics","39","186587","0.0-7.0-0.0-0.14","793","","arrowright","","","","","","","","","","","","","key","arrowright","16.667289719626385","640","356","arrowright","true","../../test_img/12.png","生人","prac_matching_task","自我","[""<img src=\""../../test_img/12.png\"" width=150 style=\""vertical-align:middle\"">---自我"",""<img src=\""../../test_img/25.png\"" width=150 style=\""vertical-align:middle\"">---生人"",""<img src=\""../../test_img/19.png\"" width=150 style=\""vertical-align:middle\"">---朋友""]","","",""
"","","","","","html-keyboard-response","40","186901","0.0-7.0-0.0-1.14","null","<span style='color:GreenYellow; font-size: 70px;'>正确! </span>","null","","","","","","","","","","","","","","","","","","","","","","","","","feedback_test","",""
"","","","","","psychophysics","41","189408","0.0-7.0-0.0-0.15","null","","null","","","","","","","","","","","","","key","null","16.670666666666705","640","356","arrowleft","false","../../test_img/25.png","生人","prac_matching_task","生人","[""<img src=\""../../test_img/12.png\"" width=150 style=\""vertical-align:middle\"">---自我"",""<img src=\""../../test_img/25.png\"" width=150 style=\""vertical-align:middle\"">---生人"",""<img src=\""../../test_img/19.png\"" width=150 style=\""vertical-align:middle\"">---朋友""]","","",""
"","","","","","html-keyboard-response","42","189723","0.0-7.0-0.0-1.15","null","<span class='add_' style='color:yellow; font-size: 70px;'> 太慢! </span>","null","","","","","","","","","","","","","","","","","","","","","","","","","feedback_test","",""
"","","","","","psychophysics","43","191740","0.0-7.0-0.0-0.16","1015","","arrowleft","","","","","","","","","","","","","key","arrowleft","16.665546218487492","640","356","arrowleft","true","../../test_img/25.png","生人","prac_matching_task","生人","[""<img src=\""../../test_img/12.png\"" width=150 style=\""vertical-align:middle\"">---自我"",""<img src=\""../../test_img/25.png\"" width=150 style=\""vertical-align:middle\"">---生人"",""<img src=\""../../test_img/19.png\"" width=150 style=\""vertical-align:middle\"">---朋友""]","","",""
"","","","","","html-keyboard-response","44","192046","0.0-7.0-0.0-1.16","null","<span style='color:GreenYellow; font-size: 70px;'>正确! </span>","null","","","","","","","","","","","","","","","","","","","","","","","","","feedback_test","",""
"","","","","","psychophysics","45","193756","0.0-7.0-0.0-0.17","697","","arrowright","","","","","","","","","","","","","key","arrowright","16.66732673267321","640","356","arrowright","true","../../test_img/19.png","自我","prac_matching_task","朋友","[""<img src=\""../../test_img/12.png\"" width=150 style=\""vertical-align:middle\"">---自我"",""<img src=\""../../test_img/25.png\"" width=150 style=\""vertical-align:middle\"">---生人"",""<img src=\""../../test_img/19.png\"" width=150 style=\""vertical-align:middle\"">---朋友""]","","",""
"","","","","","html-keyboard-response","46","194072","0.0-7.0-0.0-1.17","null","<span style='color:GreenYellow; font-size: 70px;'>正确! </span>","null","","","","","","","","","","","","","","","","","","","","","","","","","feedback_test","",""
"","","","","","psychophysics","47","195690","0.0-7.0-0.0-0.18","614","","arrowleft","","","","","","","","","","","","","key","arrowleft","16.670270833333234","640","356","arrowleft","true","../../test_img/12.png","自我","prac_matching_task","自我","[""<img src=\""../../test_img/12.png\"" width=150 style=\""vertical-align:middle\"">---自我"",""<img src=\""../../test_img/25.png\"" width=150 style=\""vertical-align:middle\"">---生人"",""<img src=\""../../test_img/19.png\"" width=150 style=\""vertical-align:middle\"">---朋友""]","","",""
"","","","","","html-keyboard-response","48","196004","0.0-7.0-0.0-1.18","null","<span style='color:GreenYellow; font-size: 70px;'>正确! </span>","null","","","","","","","","","","","","","","","","","","","","","","","","","feedback_test","",""
"","","","","","psychophysics","49","197855","0.0-7.0-0.0-0.19","845","","arrowright","","","","","","","","","","","","","key","arrowright","16.669999999999842","640","356","arrowright","true","../../test_img/19.png","生人","prac_matching_task","朋友","[""<img src=\""../../test_img/12.png\"" width=150 style=\""vertical-align:middle\"">---自我"",""<img src=\""../../test_img/25.png\"" width=150 style=\""vertical-align:middle\"">---生人"",""<img src=\""../../test_img/19.png\"" width=150 style=\""vertical-align:middle\"">---朋友""]","","",""
"","","","","","html-keyboard-response","50","198169","0.0-7.0-0.0-1.19","null","<span style='color:GreenYellow; font-size: 70px;'>正确! </span>","null","","","","","","","","","","","","","","","","","","","","","","","","","feedback_test","",""
"","","","","","psychophysics","51","199885","0.0-7.0-0.0-0.20","708","","arrowright","","","","","","","","","","","","","key","arrowright","16.667647058823587","640","356","arrowright","true","../../test_img/25.png","自我","prac_matching_task","生人","[""<img src=\""../../test_img/12.png\"" width=150 style=\""vertical-align:middle\"">---自我"",""<img src=\""../../test_img/25.png\"" width=150 style=\""vertical-align:middle\"">---生人"",""<img src=\""../../test_img/19.png\"" width=150 style=\""vertical-align:middle\"">---朋友""]","","",""
"","","","","","html-keyboard-response","52","200193","0.0-7.0-0.0-1.20","null","<span style='color:GreenYellow; font-size: 70px;'>正确! </span>","null","","","","","","","","","","","","","","","","","","","","","","","","","feedback_test","",""
"","","","","","psychophysics","53","202278","0.0-7.0-0.0-0.21","1071","","arrowleft","","","","","","","","","","","","","key","arrowleft","16.670161290322394","640","356","arrowleft","true","../../test_img/19.png","朋友","prac_matching_task","朋友","[""<img src=\""../../test_img/12.png\"" width=150 style=\""vertical-align:middle\"">---自我"",""<img src=\""../../test_img/25.png\"" width=150 style=\""vertical-align:middle\"">---生人"",""<img src=\""../../test_img/19.png\"" width=150 style=\""vertical-align:middle\"">---朋友""]","","",""
"","","","","","html-keyboard-response","54","202581","0.0-7.0-0.0-1.21","null","<span style='color:GreenYellow; font-size: 70px;'>正确! </span>","null","","","","","","","","","","","","","","","","","","","","","","","","","feedback_test","",""
"","","","","","psychophysics","55","204482","0.0-7.0-0.0-0.22","889","","arrowleft","","","","","","","","","","","","","key","arrowleft","16.66991150442488","640","356","arrowleft","true","../../test_img/19.png","朋友","prac_matching_task","朋友","[""<img src=\""../../test_img/12.png\"" width=150 style=\""vertical-align:middle\"">---自我"",""<img src=\""../../test_img/25.png\"" width=150 style=\""vertical-align:middle\"">---生人"",""<img src=\""../../test_img/19.png\"" width=150 style=\""vertical-align:middle\"">---朋友""]","","",""
"","","","","","html-keyboard-response","56","204795","0.0-7.0-0.0-1.22","null","<span style='color:GreenYellow; font-size: 70px;'>正确! </span>","null","","","","","","","","","","","","","","","","","","","","","","","","","feedback_test","",""
"","","","","","psychophysics","57","206803","0.0-7.0-0.0-0.23","996","","arrowright","","","","","","","","","","","","","key","arrowright","16.668907563025257","640","356","arrowright","true","../../test_img/12.png","朋友","prac_matching_task","自我","[""<img src=\""../../test_img/12.png\"" width=150 style=\""vertical-align:middle\"">---自我"",""<img src=\""../../test_img/25.png\"" width=150 style=\""vertical-align:middle\"">---生人"",""<img src=\""../../test_img/19.png\"" width=150 style=\""vertical-align:middle\"">---朋友""]","","",""
"","","","","","html-keyboard-response","58","207118","0.0-7.0-0.0-1.23","null","<span style='color:GreenYellow; font-size: 70px;'>正确! </span>","null","","","","","","","","","","","","","","","","","","","","","","","","","feedback_test","",""
"","","","","","html-keyboard-response","59","215796","0.0-8.0","8676","<style>.context{color:white; font-size: 35px; line-height:40px}</style>                          <div><p class='context'>您正确回答了96% 的试次。</p ><p class='context'>您的平均反应时为879毫秒。</p ><p class='context'>恭喜您完成练习。按任意键进入知觉匹配任务正式实验。</p ><p style = 'color:lightgreen; font-size: 35px;' >正式实验与练习要求相同，请您尽可能又快又准地进行按键反应</p><p class='footer' style='font-size: 22px; line-height:40px;'>请将您右手的<span style='color: lightgreen;'>食指与无名指</span>放在电脑键盘的相应键位上进行按键。</p >"," ","","","","","","","","","","","","","","","","","","","","","","","","","","",""
"","","","","","psychophysics","60","217657","0.0-9.0-0.0-0.0-0.0-0.0","857","","arrowright","","","","","","","","","","","","","key","arrowright","16.670000000000105","640","356","arrowright","true","../../test_img/12.png","生人","matching_task","自我","[""<img src=\""../../test_img/12.png\"" width=150 style=\""vertical-align:middle\"">---自我"",""<img src=\""../../test_img/25.png\"" width=150 style=\""vertical-align:middle\"">---生人"",""<img src=\""../../test_img/19.png\"" width=150 style=\""vertical-align:middle\"">---朋友""]","","",""
"","","","","","html-keyboard-response","61","218162","0.0-9.0-0.0-0.0-0.0-1.0","null","<span style='color:GreenYellow; font-size: 70px;'>正确! </span>","null","","","","","","","","","","","","","","","","","","","","","","","","","feedback_test","",""
"","","","","","psychophysics","62","219936","0.0-9.0-0.0-0.0-0.0-0.1","760","","arrowright","","","","","","","","","","","","","key","arrowright","16.669523809523977","640","356","arrowleft","false","../../test_img/25.png","生人","matching_task","生人","[""<img src=\""../../test_img/12.png\"" width=150 style=\""vertical-align:middle\"">---自我"",""<img src=\""../../test_img/25.png\"" width=150 style=\""vertical-align:middle\"">---生人"",""<img src=\""../../test_img/19.png\"" width=150 style=\""vertical-align:middle\"">---朋友""]","","",""
"","","","","","html-keyboard-response","63","220446","0.0-9.0-0.0-0.0-0.0-1.1","null","<span style='color:red; font-size: 70px;'>错误! </span>","null","","","","","","","","","","","","","","","","","","","","","","","","","feedback_test","",""
"","","","","","psychophysics","64","222188","0.0-9.0-0.0-0.0-0.0-0.2","741","","arrowleft","","","","","","","","","","","","","key","arrowleft","16.670873786407824","640","356","arrowleft","true","../../test_img/19.png","朋友","matching_task","朋友","[""<img src=\""../../test_img/12.png\"" width=150 style=\""vertical-align:middle\"">---自我"",""<img src=\""../../test_img/25.png\"" width=150 style=\""vertical-align:middle\"">---生人"",""<img src=\""../../test_img/19.png\"" width=150 style=\""vertical-align:middle\"">---朋友""]","","",""
"","","","","","html-keyboard-response","65","222703","0.0-9.0-0.0-0.0-0.0-1.2","null","<span style='color:GreenYellow; font-size: 70px;'>正确! </span>","null","","","","","","","","","","","","","","","","","","","","","","","","","feedback_test","",""
"","","","","","psychophysics","66","224582","0.0-9.0-0.0-0.0-0.0-0.3","867","","arrowright","","","","","","","","","","","","","key","arrowright","16.669642857142858","640","356","arrowright","true","../../test_img/25.png","自我","matching_task","生人","[""<img src=\""../../test_img/12.png\"" width=150 style=\""vertical-align:middle\"">---自我"",""<img src=\""../../test_img/25.png\"" width=150 style=\""vertical-align:middle\"">---生人"",""<img src=\""../../test_img/19.png\"" width=150 style=\""vertical-align:middle\"">---朋友""]","","",""
"","","","","","html-keyboard-response","67","225084","0.0-9.0-0.0-0.0-0.0-1.3","null","<span style='color:GreenYellow; font-size: 70px;'>正确! </span>","null","","","","","","","","","","","","","","","","","","","","","","","","","feedback_test","",""
"","","","","","psychophysics","68","227107","0.0-9.0-0.0-0.0-0.0-0.4","1010","","arrowright","","","","","","","","","","","","","key","arrowright","16.66833333333343","640","356","arrowright","true","../../test_img/25.png","朋友","matching_task","生人","[""<img src=\""../../test_img/12.png\"" width=150 style=\""vertical-align:middle\"">---自我"",""<img src=\""../../test_img/25.png\"" width=150 style=\""vertical-align:middle\"">---生人"",""<img src=\""../../test_img/19.png\"" width=150 style=\""vertical-align:middle\"">---朋友""]","","",""
"","","","","","html-keyboard-response","69","227622","0.0-9.0-0.0-0.0-0.0-1.4","null","<span style='color:GreenYellow; font-size: 70px;'>正确! </span>","null","","","","","","","","","","","","","","","","","","","","","","","","","feedback_test","",""
"","","","","","psychophysics","70","229373","0.0-9.0-0.0-0.0-0.0-0.5","743","","arrowleft","","","","","","","","","","","","","key","arrowleft","16.669230769230825","640","356","arrowleft","true","../../test_img/12.png","自我","matching_task","自我","[""<img src=\""../../test_img/12.png\"" width=150 style=\""vertical-align:middle\"">---自我"",""<img src=\""../../test_img/25.png\"" width=150 style=\""vertical-align:middle\"">---生人"",""<img src=\""../../test_img/19.png\"" width=150 style=\""vertical-align:middle\"">---朋友""]","","",""
"","","","","","html-keyboard-response","71","229875","0.0-9.0-0.0-0.0-0.0-1.5","null","<span style='color:GreenYellow; font-size: 70px;'>正确! </span>","null","","","","","","","","","","","","","","","","","","","","","","","","","feedback_test","",""
"","","","","","psychophysics","72","231437","0.0-9.0-0.0-0.0-0.0-0.6","557","","arrowleft","","","","","","","","","","","","","key","arrowleft","16.672043010752688","640","356","arrowleft","true","../../test_img/25.png","生人","matching_task","生人","[""<img src=\""../../test_img/12.png\"" width=150 style=\""vertical-align:middle\"">---自我"",""<img src=\""../../test_img/25.png\"" width=150 style=\""vertical-align:middle\"">---生人"",""<img src=\""../../test_img/19.png\"" width=150 style=\""vertical-align:middle\"">---朋友""]","","",""
"","","","","","html-keyboard-response","73","231946","0.0-9.0-0.0-0.0-0.0-1.6","null","<span style='color:GreenYellow; font-size: 70px;'>正确! </span>","null","","","","","","","","","","","","","","","","","","","","","","","","","feedback_test","",""
"","","","","","psychophysics","74","233729","0.0-9.0-0.0-0.0-0.0-0.7","780","","arrowright","","","","","","","","","","","","","key","arrowright","16.670000000000176","640","356","arrowright","true","../../test_img/12.png","朋友","matching_task","自我","[""<img src=\""../../test_img/12.png\"" width=150 style=\""vertical-align:middle\"">---自我"",""<img src=\""../../test_img/25.png\"" width=150 style=\""vertical-align:middle\"">---生人"",""<img src=\""../../test_img/19.png\"" width=150 style=\""vertical-align:middle\"">---朋友""]","","",""
"","","","","","html-keyboard-response","75","234235","0.0-9.0-0.0-0.0-0.0-1.7","null","<span style='color:GreenYellow; font-size: 70px;'>正确! </span>","null","","","","","","","","","","","","","","","","","","","","","","","","","feedback_test","",""
"","","","","","psychophysics","76","236019","0.0-9.0-0.0-0.0-0.0-0.8","771","","arrowright","","","","","","","","","","","","","key","arrowright","16.66792452830178","640","356","arrowright","true","../../test_img/19.png","生人","matching_task","朋友","[""<img src=\""../../test_img/12.png\"" width=150 style=\""vertical-align:middle\"">---自我"",""<img src=\""../../test_img/25.png\"" width=150 style=\""vertical-align:middle\"">---生人"",""<img src=\""../../test_img/19.png\"" width=150 style=\""vertical-align:middle\"">---朋友""]","","",""
"","","","","","html-keyboard-response","77","236532","0.0-9.0-0.0-0.0-0.0-1.8","null","<span style='color:GreenYellow; font-size: 70px;'>正确! </span>","null","","","","","","","","","","","","","","","","","","","","","","","","","feedback_test","",""
"","","","","","psychophysics","78","238251","0.0-9.0-0.0-0.0-0.0-0.9","714","","arrowleft","","","","","","","","","","","","","key","arrowleft","16.669607843137427","640","356","arrowleft","true","../../test_img/12.png","自我","matching_task","自我","[""<img src=\""../../test_img/12.png\"" width=150 style=\""vertical-align:middle\"">---自我"",""<img src=\""../../test_img/25.png\"" width=150 style=\""vertical-align:middle\"">---生人"",""<img src=\""../../test_img/19.png\"" width=150 style=\""vertical-align:middle\"">---朋友""]","","",""
"","","","","","html-keyboard-response","79","238767","0.0-9.0-0.0-0.0-0.0-1.9","null","<span style='color:GreenYellow; font-size: 70px;'>正确! </span>","null","","","","","","","","","","","","","","","","","","","","","","","","","feedback_test","",""
"","","","","","psychophysics","80","240574","0.0-9.0-0.0-0.0-0.0-0.10","793","","arrowleft","","","","","","","","","","","","","key","arrowleft","16.669158878504728","640","356","arrowleft","true","../../test_img/19.png","朋友","matching_task","朋友","[""<img src=\""../../test_img/12.png\"" width=150 style=\""vertical-align:middle\"">---自我"",""<img src=\""../../test_img/25.png\"" width=150 style=\""vertical-align:middle\"">---生人"",""<img src=\""../../test_img/19.png\"" width=150 style=\""vertical-align:middle\"">---朋友""]","","",""
"","","","","","html-keyboard-response","81","241089","0.0-9.0-0.0-0.0-0.0-1.10","null","<span style='color:GreenYellow; font-size: 70px;'>正确! </span>","null","","","","","","","","","","","","","","","","","","","","","","","","","feedback_test","",""
"","","","","","psychophysics","82","242889","0.0-9.0-0.0-0.0-0.0-0.11","790","","arrowright","","","","","","","","","","","","","key","arrowright","16.669158878504728","640","356","arrowright","true","../../test_img/19.png","自我","matching_task","朋友","[""<img src=\""../../test_img/12.png\"" width=150 style=\""vertical-align:middle\"">---自我"",""<img src=\""../../test_img/25.png\"" width=150 style=\""vertical-align:middle\"">---生人"",""<img src=\""../../test_img/19.png\"" width=150 style=\""vertical-align:middle\"">---朋友""]","","",""
"","","","","","html-keyboard-response","83","243404","0.0-9.0-0.0-0.0-0.0-1.11","null","<span style='color:GreenYellow; font-size: 70px;'>正确! </span>","null","","","","","","","","","","","","","","","","","","","","","","","","","feedback_test","",""
"","","","","","psychophysics","84","245214","0.0-9.0-0.0-0.0-0.0-0.12","798","","arrowleft","","","","","","","","","","","","","key","arrowleft","16.669158878504728","640","356","arrowleft","true","../../test_img/25.png","生人","matching_task","生人","[""<img src=\""../../test_img/12.png\"" width=150 style=\""vertical-align:middle\"">---自我"",""<img src=\""../../test_img/25.png\"" width=150 style=\""vertical-align:middle\"">---生人"",""<img src=\""../../test_img/19.png\"" width=150 style=\""vertical-align:middle\"">---朋友""]","","",""
"","","","","","html-keyboard-response","85","245717","0.0-9.0-0.0-0.0-0.0-1.12","null","<span style='color:GreenYellow; font-size: 70px;'>正确! </span>","null","","","","","","","","","","","","","","","","","","","","","","","","","feedback_test","",""
"","","","","","psychophysics","86","247501","0.0-9.0-0.0-0.0-0.0-0.13","770","","arrowleft","","","","","","","","","","","","","key","arrowleft","16.670754716981186","640","356","arrowleft","true","../../test_img/12.png","自我","matching_task","自我","[""<img src=\""../../test_img/12.png\"" width=150 style=\""vertical-align:middle\"">---自我"",""<img src=\""../../test_img/25.png\"" width=150 style=\""vertical-align:middle\"">---生人"",""<img src=\""../../test_img/19.png\"" width=150 style=\""vertical-align:middle\"">---朋友""]","","",""
"","","","","","html-keyboard-response","87","248005","0.0-9.0-0.0-0.0-0.0-1.13","null","<span style='color:GreenYellow; font-size: 70px;'>正确! </span>","null","","","","","","","","","","","","","","","","","","","","","","","","","feedback_test","",""
"","","","","","psychophysics","88","249757","0.0-9.0-0.0-0.0-0.0-0.14","740","","arrowleft","","","","","","","","","","","","","key","arrowleft","16.669230769230825","640","356","arrowleft","true","../../test_img/25.png","生人","matching_task","生人","[""<img src=\""../../test_img/12.png\"" width=150 style=\""vertical-align:middle\"">---自我"",""<img src=\""../../test_img/25.png\"" width=150 style=\""vertical-align:middle\"">---生人"",""<img src=\""../../test_img/19.png\"" width=150 style=\""vertical-align:middle\"">---朋友""]","","",""
"","","","","","html-keyboard-response","89","250269","0.0-9.0-0.0-0.0-0.0-1.14","null","<span style='color:GreenYellow; font-size: 70px;'>正确! </span>","null","","","","","","","","","","","","","","","","","","","","","","","","","feedback_test","",""
"","","","","","psychophysics","90","252134","0.0-9.0-0.0-0.0-0.0-0.15","854","","arrowright","","","","","","","","","","","","","key","arrowright","16.66756756756762","640","356","arrowright","true","../../test_img/19.png","生人","matching_task","朋友","[""<img src=\""../../test_img/12.png\"" width=150 style=\""vertical-align:middle\"">---自我"",""<img src=\""../../test_img/25.png\"" width=150 style=\""vertical-align:middle\"">---生人"",""<img src=\""../../test_img/19.png\"" width=150 style=\""vertical-align:middle\"">---朋友""]","","",""
"","","","","","html-keyboard-response","91","252649","0.0-9.0-0.0-0.0-0.0-1.15","null","<span style='color:GreenYellow; font-size: 70px;'>正确! </span>","null","","","","","","","","","","","","","","","","","","","","","","","","","feedback_test","",""
"","","","","","psychophysics","92","254722","0.0-9.0-0.0-0.0-0.0-0.16","1071","","arrowright","","","","","","","","","","","","","key","arrowright","16.665853658536538","640","356","arrowright","true","../../test_img/19.png","自我","matching_task","朋友","[""<img src=\""../../test_img/12.png\"" width=150 style=\""vertical-align:middle\"">---自我"",""<img src=\""../../test_img/25.png\"" width=150 style=\""vertical-align:middle\"">---生人"",""<img src=\""../../test_img/19.png\"" width=150 style=\""vertical-align:middle\"">---朋友""]","","",""
"","","","","","html-keyboard-response","93","255229","0.0-9.0-0.0-0.0-0.0-1.16","null","<span style='color:GreenYellow; font-size: 70px;'>正确! </span>","null","","","","","","","","","","","","","","","","","","","","","","","","","feedback_test","",""
"","","","","","psychophysics","94","256977","0.0-9.0-0.0-0.0-0.0-0.17","742","","arrowleft","","","","","","","","","","","","","key","arrowleft","16.667307692307638","640","356","arrowleft","true","../../test_img/19.png","朋友","matching_task","朋友","[""<img src=\""../../test_img/12.png\"" width=150 style=\""vertical-align:middle\"">---自我"",""<img src=\""../../test_img/25.png\"" width=150 style=\""vertical-align:middle\"">---生人"",""<img src=\""../../test_img/19.png\"" width=150 style=\""vertical-align:middle\"">---朋友""]","","",""
"","","","","","html-keyboard-response","95","257490","0.0-9.0-0.0-0.0-0.0-1.17","null","<span style='color:GreenYellow; font-size: 70px;'>正确! </span>","null","","","","","","","","","","","","","","","","","","","","","","","","","feedback_test","",""
"","","","","","psychophysics","96","259499","0.0-9.0-0.0-0.0-0.0-0.18","996","","arrowright","","","","","","","","","","","","","key","arrowright","16.668907563025016","640","356","arrowright","true","../../test_img/25.png","朋友","matching_task","生人","[""<img src=\""../../test_img/12.png\"" width=150 style=\""vertical-align:middle\"">---自我"",""<img src=\""../../test_img/25.png\"" width=150 style=\""vertical-align:middle\"">---生人"",""<img src=\""../../test_img/19.png\"" width=150 style=\""vertical-align:middle\"">---朋友""]","","",""
"","","","","","html-keyboard-response","97","260015","0.0-9.0-0.0-0.0-0.0-1.18","null","<span style='color:GreenYellow; font-size: 70px;'>正确! </span>","null","","","","","","","","","","","","","","","","","","","","","","","","","feedback_test","",""
"","","","","","psychophysics","98","261882","0.0-9.0-0.0-0.0-0.0-0.19","862","","arrowright","","","","","","","","","","","","","key","arrowright","16.67027027027022","640","356","arrowright","true","../../test_img/12.png","朋友","matching_task","自我","[""<img src=\""../../test_img/12.png\"" width=150 style=\""vertical-align:middle\"">---自我"",""<img src=\""../../test_img/25.png\"" width=150 style=\""vertical-align:middle\"">---生人"",""<img src=\""../../test_img/19.png\"" width=150 style=\""vertical-align:middle\"">---朋友""]","","",""
"","","","","","html-keyboard-response","99","262389","0.0-9.0-0.0-0.0-0.0-1.19","null","<span style='color:GreenYellow; font-size: 70px;'>正确! </span>","null","","","","","","","","","","","","","","","","","","","","","","","","","feedback_test","",""
"","","","","","psychophysics","100","264168","0.0-9.0-0.0-0.0-0.0-0.20","767","","arrowright","","","","","","","","","","","","","key","arrowright","16.66857142857154","640","356","arrowright","true","../../test_img/12.png","生人","matching_task","自我","[""<img src=\""../../test_img/12.png\"" width=150 style=\""vertical-align:middle\"">---自我"",""<img src=\""../../test_img/25.png\"" width=150 style=\""vertical-align:middle\"">---生人"",""<img src=\""../../test_img/19.png\"" width=150 style=\""vertical-align:middle\"">---朋友""]","","",""
"","","","","","html-keyboard-response","101","264675","0.0-9.0-0.0-0.0-0.0-1.20","null","<span style='color:GreenYellow; font-size: 70px;'>正确! </span>","null","","","","","","","","","","","","","","","","","","","","","","","","","feedback_test","",""
"","","","","","psychophysics","102","266531","0.0-9.0-0.0-0.0-0.0-0.21","844","","arrowleft","","","","","","","","","","","","","key","arrowleft","16.671818181817866","640","356","arrowleft","true","../../test_img/19.png","朋友","matching_task","朋友","[""<img src=\""../../test_img/12.png\"" width=150 style=\""vertical-align:middle\"">---自我"",""<img src=\""../../test_img/25.png\"" width=150 style=\""vertical-align:middle\"">---生人"",""<img src=\""../../test_img/19.png\"" width=150 style=\""vertical-align:middle\"">---朋友""]","","",""
"","","","","","html-keyboard-response","103","267044","0.0-9.0-0.0-0.0-0.0-1.21","null","<span style='color:GreenYellow; font-size: 70px;'>正确! </span>","null","","","","","","","","","","","","","","","","","","","","","","","","","feedback_test","",""
"","","","","","psychophysics","104","268754","0.0-9.0-0.0-0.0-0.0-0.22","700","","arrowleft","","","","","","","","","","","","","key","arrowleft","16.668627450980505","640","356","arrowleft","true","../../test_img/12.png","自我","matching_task","自我","[""<img src=\""../../test_img/12.png\"" width=150 style=\""vertical-align:middle\"">---自我"",""<img src=\""../../test_img/25.png\"" width=150 style=\""vertical-align:middle\"">---生人"",""<img src=\""../../test_img/19.png\"" width=150 style=\""vertical-align:middle\"">---朋友""]","","",""
"","","","","","html-keyboard-response","105","269263","0.0-9.0-0.0-0.0-0.0-1.22","null","<span style='color:GreenYellow; font-size: 70px;'>正确! </span>","null","","","","","","","","","","","","","","","","","","","","","","","","","feedback_test","",""
"","","","","","psychophysics","106","271017","0.0-9.0-0.0-0.0-0.0-0.23","746","","arrowright","","","","","","","","","","","","","key","arrowright","16.66826923076923","640","356","arrowright","true","../../test_img/25.png","自我","matching_task","生人","[""<img src=\""../../test_img/12.png\"" width=150 style=\""vertical-align:middle\"">---自我"",""<img src=\""../../test_img/25.png\"" width=150 style=\""vertical-align:middle\"">---生人"",""<img src=\""../../test_img/19.png\"" width=150 style=\""vertical-align:middle\"">---朋友""]","","",""
"","","","","","html-keyboard-response","107","271530","0.0-9.0-0.0-0.0-0.0-1.23","null","<span style='color:GreenYellow; font-size: 70px;'>正确! </span>","null","","","","","","","","","","","","","","","","","","","","","","","","","feedback_test","",""
"","","","","","psychophysics","108","273643","0.0-9.0-0.0-0.0-0.0-0.24","1104","","arrowright","","","","","","","","","","","","","key","arrowright","16.669841269841456","640","356","arrowright","true","../../test_img/12.png","生人","matching_task","自我","[""<img src=\""../../test_img/12.png\"" width=150 style=\""vertical-align:middle\"">---自我"",""<img src=\""../../test_img/25.png\"" width=150 style=\""vertical-align:middle\"">---生人"",""<img src=\""../../test_img/19.png\"" width=150 style=\""vertical-align:middle\"">---朋友""]","","",""
"","","","","","html-keyboard-response","109","274149","0.0-9.0-0.0-0.0-0.0-1.24","null","<span style='color:GreenYellow; font-size: 70px;'>正确! </span>","null","","","","","","","","","","","","","","","","","","","","","","","","","feedback_test","",""
"","","","","","psychophysics","110","275964","0.0-9.0-0.0-0.0-0.0-0.25","809","","arrowright","","","","","","","","","","","","","key","arrowright","16.670370370370588","640","356","arrowright","true","../../test_img/12.png","朋友","matching_task","自我","[""<img src=\""../../test_img/12.png\"" width=150 style=\""vertical-align:middle\"">---自我"",""<img src=\""../../test_img/25.png\"" width=150 style=\""vertical-align:middle\"">---生人"",""<img src=\""../../test_img/19.png\"" width=150 style=\""vertical-align:middle\"">---朋友""]","","",""
"","","","","","html-keyboard-response","111","276474","0.0-9.0-0.0-0.0-0.0-1.25","null","<span style='color:GreenYellow; font-size: 70px;'>正确! </span>","null","","","","","","","","","","","","","","","","","","","","","","","","","feedback_test","",""
"","","","","","psychophysics","112","278317","0.0-9.0-0.0-0.0-0.0-0.26","841","","arrowleft","","","","","","","","","","","","","key","arrowleft","16.667889908256775","640","356","arrowleft","true","../../test_img/19.png","朋友","matching_task","朋友","[""<img src=\""../../test_img/12.png\"" width=150 style=\""vertical-align:middle\"">---自我"",""<img src=\""../../test_img/25.png\"" width=150 style=\""vertical-align:middle\"">---生人"",""<img src=\""../../test_img/19.png\"" width=150 style=\""vertical-align:middle\"">---朋友""]","","",""
"","","","","","html-keyboard-response","113","278832","0.0-9.0-0.0-0.0-0.0-1.26","null","<span style='color:GreenYellow; font-size: 70px;'>正确! </span>","null","","","","","","","","","","","","","","","","","","","","","","","","","feedback_test","",""
"","","","","","psychophysics","114","280549","0.0-9.0-0.0-0.0-0.0-0.27","710","","arrowleft","","","","","","","","","","","","","key","arrowleft","16.66960784313714","640","356","arrowleft","true","../../test_img/12.png","自我","matching_task","自我","[""<img src=\""../../test_img/12.png\"" width=150 style=\""vertical-align:middle\"">---自我"",""<img src=\""../../test_img/25.png\"" width=150 style=\""vertical-align:middle\"">---生人"",""<img src=\""../../test_img/19.png\"" width=150 style=\""vertical-align:middle\"">---朋友""]","","",""
"","","","","","html-keyboard-response","115","281051","0.0-9.0-0.0-0.0-0.0-1.27","null","<span style='color:GreenYellow; font-size: 70px;'>正确! </span>","null","","","","","","","","","","","","","","","","","","","","","","","","","feedback_test","",""
"","","","","","psychophysics","116","282854","0.0-9.0-0.0-0.0-0.0-0.28","798","","arrowright","","","","","","","","","","","","","key","arrowright","16.671028037383067","640","356","arrowright","true","../../test_img/25.png","自我","matching_task","生人","[""<img src=\""../../test_img/12.png\"" width=150 style=\""vertical-align:middle\"">---自我"",""<img src=\""../../test_img/25.png\"" width=150 style=\""vertical-align:middle\"">---生人"",""<img src=\""../../test_img/19.png\"" width=150 style=\""vertical-align:middle\"">---朋友""]","","",""
"","","","","","html-keyboard-response","117","283356","0.0-9.0-0.0-0.0-0.0-1.28","null","<span style='color:GreenYellow; font-size: 70px;'>正确! </span>","null","","","","","","","","","","","","","","","","","","","","","","","","","feedback_test","",""
"","","","","","psychophysics","118","285111","0.0-9.0-0.0-0.0-0.0-0.29","739","","arrowleft","","","","","","","","","","","","","key","arrowleft","16.67019230769242","640","356","arrowleft","true","../../test_img/19.png","朋友","matching_task","朋友","[""<img src=\""../../test_img/12.png\"" width=150 style=\""vertical-align:middle\"">---自我"",""<img src=\""../../test_img/25.png\"" width=150 style=\""vertical-align:middle\"">---生人"",""<img src=\""../../test_img/19.png\"" width=150 style=\""vertical-align:middle\"">---朋友""]","","",""
"","","","","","html-keyboard-response","119","285626","0.0-9.0-0.0-0.0-0.0-1.29","null","<span style='color:GreenYellow; font-size: 70px;'>正确! </span>","null","","","","","","","","","","","","","","","","","","","","","","","","","feedback_test","",""
"","","","","","psychophysics","120","287317","0.0-9.0-0.0-0.0-0.0-0.30","678","","arrowright","","","","","","","","","","","","","key","arrowright","16.668999999999652","640","356","arrowright","true","../../test_img/19.png","自我","matching_task","朋友","[""<img src=\""../../test_img/12.png\"" width=150 style=\""vertical-align:middle\"">---自我"",""<img src=\""../../test_img/25.png\"" width=150 style=\""vertical-align:middle\"">---生人"",""<img src=\""../../test_img/19.png\"" width=150 style=\""vertical-align:middle\"">---朋友""]","","",""
"","","","","","html-keyboard-response","121","287818","0.0-9.0-0.0-0.0-0.0-1.30","null","<span style='color:GreenYellow; font-size: 70px;'>正确! </span>","null","","","","","","","","","","","","","","","","","","","","","","","","","feedback_test","",""
"","","","","","psychophysics","122","289445","0.0-9.0-0.0-0.0-0.0-0.31","623","","arrowleft","","","","","","","","","","","","","key","arrowleft","16.670103092783506","640","356","arrowleft","true","../../test_img/12.png","自我","matching_task","自我","[""<img src=\""../../test_img/12.png\"" width=150 style=\""vertical-align:middle\"">---自我"",""<img src=\""../../test_img/25.png\"" width=150 style=\""vertical-align:middle\"">---生人"",""<img src=\""../../test_img/19.png\"" width=150 style=\""vertical-align:middle\"">---朋友""]","","",""
"","","","","","html-keyboard-response","123","289955","0.0-9.0-0.0-0.0-0.0-1.31","null","<span style='color:GreenYellow; font-size: 70px;'>正确! </span>","null","","","","","","","","","","","","","","","","","","","","","","","","","feedback_test","",""
"","","","","","psychophysics","124","291702","0.0-9.0-0.0-0.0-0.0-0.32","745","","arrowright","","","","","","","","","","","","","key","arrowright","16.67019230769242","640","356","arrowright","true","../../test_img/19.png","生人","matching_task","朋友","[""<img src=\""../../test_img/12.png\"" width=150 style=\""vertical-align:middle\"">---自我"",""<img src=\""../../test_img/25.png\"" width=150 style=\""vertical-align:middle\"">---生人"",""<img src=\""../../test_img/19.png\"" width=150 style=\""vertical-align:middle\"">---朋友""]","","",""
"","","","","","html-keyboard-response","125","292210","0.0-9.0-0.0-0.0-0.0-1.32","null","<span style='color:GreenYellow; font-size: 70px;'>正确! </span>","null","","","","","","","","","","","","","","","","","","","","","","","","","feedback_test","",""
"","","","","","psychophysics","126","293853","0.0-9.0-0.0-0.0-0.0-0.33","629","","arrowleft","","","","","","","","","","","","","key","arrowleft","16.669072164948695","640","356","arrowleft","true","../../test_img/25.png","生人","matching_task","生人","[""<img src=\""../../test_img/12.png\"" width=150 style=\""vertical-align:middle\"">---自我"",""<img src=\""../../test_img/25.png\"" width=150 style=\""vertical-align:middle\"">---生人"",""<img src=\""../../test_img/19.png\"" width=150 style=\""vertical-align:middle\"">---朋友""]","","",""
"","","","","","html-keyboard-response","127","294360","0.0-9.0-0.0-0.0-0.0-1.33","null","<span style='color:GreenYellow; font-size: 70px;'>正确! </span>","null","","","","","","","","","","","","","","","","","","","","","","","","","feedback_test","",""
"","","","","","psychophysics","128","296281","0.0-9.0-0.0-0.0-0.0-0.34","907","","arrowleft","","","","","","","","","","","","","key","arrowleft","16.669298245614442","640","356","arrowleft","true","../../test_img/25.png","生人","matching_task","生人","[""<img src=\""../../test_img/12.png\"" width=150 style=\""vertical-align:middle\"">---自我"",""<img src=\""../../test_img/25.png\"" width=150 style=\""vertical-align:middle\"">---生人"",""<img src=\""../../test_img/19.png\"" width=150 style=\""vertical-align:middle\"">---朋友""]","","",""
"","","","","","html-keyboard-response","129","296786","0.0-9.0-0.0-0.0-0.0-1.34","null","<span style='color:GreenYellow; font-size: 70px;'>正确! </span>","null","","","","","","","","","","","","","","","","","","","","","","","","","feedback_test","",""
"","","","","","psychophysics","130","298505","0.0-9.0-0.0-0.0-0.0-0.35","717","","arrowright","","","","","","","","","","","","","key","arrowright","16.66960784313771","640","356","arrowright","true","../../test_img/25.png","朋友","matching_task","生人","[""<img src=\""../../test_img/12.png\"" width=150 style=\""vertical-align:middle\"">---自我"",""<img src=\""../../test_img/25.png\"" width=150 style=\""vertical-align:middle\"">---生人"",""<img src=\""../../test_img/19.png\"" width=150 style=\""vertical-align:middle\"">---朋友""]","","",""
"","","","","","html-keyboard-response","131","299018","0.0-9.0-0.0-0.0-0.0-1.35","null","<span style='color:GreenYellow; font-size: 70px;'>正确! </span>","null","","","","","","","","","","","","","","","","","","","","","","","","","feedback_test","",""
"","","","","","psychophysics","132","300981","0.0-9.0-0.0-0.0-0.0-0.36","955","","arrowright","","","","","","","","","","","","","key","arrowright","16.66837606837567","640","356","arrowright","true","../../test_img/19.png","自我","matching_task","朋友","[""<img src=\""../../test_img/12.png\"" width=150 style=\""vertical-align:middle\"">---自我"",""<img src=\""../../test_img/25.png\"" width=150 style=\""vertical-align:middle\"">---生人"",""<img src=\""../../test_img/19.png\"" width=150 style=\""vertical-align:middle\"">---朋友""]","","",""
"","","","","","html-keyboard-response","133","301483","0.0-9.0-0.0-0.0-0.0-1.36","null","<span style='color:GreenYellow; font-size: 70px;'>正确! </span>","null","","","","","","","","","","","","","","","","","","","","","","","","","feedback_test","",""
"","","","","","psychophysics","134","303119","0.0-9.0-0.0-0.0-0.0-0.37","627","","arrowleft","","","","","","","","","","","","","key","arrowleft","16.66597938144366","640","356","arrowleft","true","../../test_img/12.png","自我","matching_task","自我","[""<img src=\""../../test_img/12.png\"" width=150 style=\""vertical-align:middle\"">---自我"",""<img src=\""../../test_img/25.png\"" width=150 style=\""vertical-align:middle\"">---生人"",""<img src=\""../../test_img/19.png\"" width=150 style=\""vertical-align:middle\"">---朋友""]","","",""
"","","","","","html-keyboard-response","135","303629","0.0-9.0-0.0-0.0-0.0-1.37","null","<span style='color:GreenYellow; font-size: 70px;'>正确! </span>","null","","","","","","","","","","","","","","","","","","","","","","","","","feedback_test","",""
"","","","","","psychophysics","136","305320","0.0-9.0-0.0-0.0-0.0-0.38","678","","arrowleft","","","","","","","","","","","","","key","arrowleft","16.67","640","356","arrowleft","true","../../test_img/25.png","生人","matching_task","生人","[""<img src=\""../../test_img/12.png\"" width=150 style=\""vertical-align:middle\"">---自我"",""<img src=\""../../test_img/25.png\"" width=150 style=\""vertical-align:middle\"">---生人"",""<img src=\""../../test_img/19.png\"" width=150 style=\""vertical-align:middle\"">---朋友""]","","",""
"","","","","","html-keyboard-response","137","305828","0.0-9.0-0.0-0.0-0.0-1.38","null","<span style='color:GreenYellow; font-size: 70px;'>正确! </span>","null","","","","","","","","","","","","","","","","","","","","","","","","","feedback_test","",""
"","","","","","psychophysics","138","307512","0.0-9.0-0.0-0.0-0.0-0.39","674","","arrowright","","","","","","","","","","","","","key","arrowright","16.67","640","356","arrowright","true","../../test_img/12.png","生人","matching_task","自我","[""<img src=\""../../test_img/12.png\"" width=150 style=\""vertical-align:middle\"">---自我"",""<img src=\""../../test_img/25.png\"" width=150 style=\""vertical-align:middle\"">---生人"",""<img src=\""../../test_img/19.png\"" width=150 style=\""vertical-align:middle\"">---朋友""]","","",""
"","","","","","html-keyboard-response","139","308024","0.0-9.0-0.0-0.0-0.0-1.39","null","<span style='color:GreenYellow; font-size: 70px;'>正确! </span>","null","","","","","","","","","","","","","","","","","","","","","","","","","feedback_test","",""
"","","","","","psychophysics","140","309845","0.0-9.0-0.0-0.0-0.0-0.40","817","","arrowleft","","","","","","","","","","","","","key","arrowleft","16.6697247706422","640","356","arrowleft","true","../../test_img/19.png","朋友","matching_task","朋友","[""<img src=\""../../test_img/12.png\"" width=150 style=\""vertical-align:middle\"">---自我"",""<img src=\""../../test_img/25.png\"" width=150 style=\""vertical-align:middle\"">---生人"",""<img src=\""../../test_img/19.png\"" width=150 style=\""vertical-align:middle\"">---朋友""]","","",""
"","","","","","html-keyboard-response","141","310360","0.0-9.0-0.0-0.0-0.0-1.40","null","<span style='color:GreenYellow; font-size: 70px;'>正确! </span>","null","","","","","","","","","","","","","","","","","","","","","","","","","feedback_test","",""
"","","","","","psychophysics","142","312133","0.0-9.0-0.0-0.0-0.0-0.41","772","","arrowright","","","","","","","","","","","","","key","arrowright","16.669523809524254","640","356","arrowright","true","../../test_img/25.png","自我","matching_task","生人","[""<img src=\""../../test_img/12.png\"" width=150 style=\""vertical-align:middle\"">---自我"",""<img src=\""../../test_img/25.png\"" width=150 style=\""vertical-align:middle\"">---生人"",""<img src=\""../../test_img/19.png\"" width=150 style=\""vertical-align:middle\"">---朋友""]","","",""
"","","","","","html-keyboard-response","143","312644","0.0-9.0-0.0-0.0-0.0-1.41","null","<span style='color:GreenYellow; font-size: 70px;'>正确! </span>","null","","","","","","","","","","","","","","","","","","","","","","","","","feedback_test","",""
"","","","","","psychophysics","144","314891","0.0-9.0-0.0-0.0-0.0-0.42","1236","","arrowleft","","","","","","","","","","","","","key","arrowleft","16.669172932330827","640","356","arrowleft","true","../../test_img/19.png","朋友","matching_task","朋友","[""<img src=\""../../test_img/12.png\"" width=150 style=\""vertical-align:middle\"">---自我"",""<img src=\""../../test_img/25.png\"" width=150 style=\""vertical-align:middle\"">---生人"",""<img src=\""../../test_img/19.png\"" width=150 style=\""vertical-align:middle\"">---朋友""]","","",""
"","","","","","html-keyboard-response","145","315397","0.0-9.0-0.0-0.0-0.0-1.42","null","<span style='color:GreenYellow; font-size: 70px;'>正确! </span>","null","","","","","","","","","","","","","","","","","","","","","","","","","feedback_test","",""
"","","","","","psychophysics","146","317146","0.0-9.0-0.0-0.0-0.0-0.43","735","","arrowright","","","","","","","","","","","","","key","arrowright","16.67019230769242","640","356","arrowright","true","../../test_img/12.png","朋友","matching_task","自我","[""<img src=\""../../test_img/12.png\"" width=150 style=\""vertical-align:middle\"">---自我"",""<img src=\""../../test_img/25.png\"" width=150 style=\""vertical-align:middle\"">---生人"",""<img src=\""../../test_img/19.png\"" width=150 style=\""vertical-align:middle\"">---朋友""]","","",""
"","","","","","html-keyboard-response","147","317658","0.0-9.0-0.0-0.0-0.0-1.43","null","<span style='color:GreenYellow; font-size: 70px;'>正确! </span>","null","","","","","","","","","","","","","","","","","","","","","","","","","feedback_test","",""
"","","","","","psychophysics","148","319642","0.0-9.0-0.0-0.0-0.0-0.44","981","","arrowright","","","","","","","","","","","","","key","arrowright","16.671186440677573","640","356","arrowright","true","../../test_img/19.png","生人","matching_task","朋友","[""<img src=\""../../test_img/12.png\"" width=150 style=\""vertical-align:middle\"">---自我"",""<img src=\""../../test_img/25.png\"" width=150 style=\""vertical-align:middle\"">---生人"",""<img src=\""../../test_img/19.png\"" width=150 style=\""vertical-align:middle\"">---朋友""]","","",""
"","","","","","html-keyboard-response","149","320153","0.0-9.0-0.0-0.0-0.0-1.44","null","<span style='color:GreenYellow; font-size: 70px;'>正确! </span>","null","","","","","","","","","","","","","","","","","","","","","","","","","feedback_test","",""
"","","","","","psychophysics","150","322126","0.0-9.0-0.0-0.0-0.0-0.45","964","","arrowleft","","","","","","","","","","","","","key","arrowleft","16.670085470085173","640","356","arrowleft","true","../../test_img/25.png","生人","matching_task","生人","[""<img src=\""../../test_img/12.png\"" width=150 style=\""vertical-align:middle\"">---自我"",""<img src=\""../../test_img/25.png\"" width=150 style=\""vertical-align:middle\"">---生人"",""<img src=\""../../test_img/19.png\"" width=150 style=\""vertical-align:middle\"">---朋友""]","","",""
"","","","","","html-keyboard-response","151","322637","0.0-9.0-0.0-0.0-0.0-1.45","null","<span style='color:GreenYellow; font-size: 70px;'>正确! </span>","null","","","","","","","","","","","","","","","","","","","","","","","","","feedback_test","",""
"","","","","","psychophysics","152","324341","0.0-9.0-0.0-0.0-0.0-0.46","695","","arrowright","","","","","","","","","","","","","key","arrowright","16.669306930692837","640","356","arrowright","true","../../test_img/25.png","朋友","matching_task","生人","[""<img src=\""../../test_img/12.png\"" width=150 style=\""vertical-align:middle\"">---自我"",""<img src=\""../../test_img/25.png\"" width=150 style=\""vertical-align:middle\"">---生人"",""<img src=\""../../test_img/19.png\"" width=150 style=\""vertical-align:middle\"">---朋友""]","","",""
"","","","","","html-keyboard-response","153","324852","0.0-9.0-0.0-0.0-0.0-1.46","null","<span style='color:GreenYellow; font-size: 70px;'>正确! </span>","null","","","","","","","","","","","","","","","","","","","","","","","","","feedback_test","",""
"","","","","","psychophysics","154","326539","0.0-9.0-0.0-0.0-0.0-0.47","677","","arrowleft","","","","","","","","","","","","","key","arrowleft","16.667999999999882","640","356","arrowleft","true","../../test_img/12.png","自我","matching_task","自我","[""<img src=\""../../test_img/12.png\"" width=150 style=\""vertical-align:middle\"">---自我"",""<img src=\""../../test_img/25.png\"" width=150 style=\""vertical-align:middle\"">---生人"",""<img src=\""../../test_img/19.png\"" width=150 style=\""vertical-align:middle\"">---朋友""]","","",""
"","","","","","html-keyboard-response","155","327048","0.0-9.0-0.0-0.0-0.0-1.47","null","<span style='color:GreenYellow; font-size: 70px;'>正确! </span>","null","","","","","","","","","","","","","","","","","","","","","","","","","feedback_test","",""
"","","","","","psychophysics","156","328739","0.0-9.0-0.0-0.0-0.0-0.48","678","","arrowleft","","","","","","","","","","","","","key","arrowleft","16.66900000000023","640","356","arrowleft","true","../../test_img/19.png","朋友","matching_task","朋友","[""<img src=\""../../test_img/12.png\"" width=150 style=\""vertical-align:middle\"">---自我"",""<img src=\""../../test_img/25.png\"" width=150 style=\""vertical-align:middle\"">---生人"",""<img src=\""../../test_img/19.png\"" width=150 style=\""vertical-align:middle\"">---朋友""]","","",""
"","","","","","html-keyboard-response","157","329244","0.0-9.0-0.0-0.0-0.0-1.48","null","<span style='color:GreenYellow; font-size: 70px;'>正确! </span>","null","","","","","","","","","","","","","","","","","","","","","","","","","feedback_test","",""
"","","","","","psychophysics","158","331003","0.0-9.0-0.0-0.0-0.0-0.49","756","","arrowright","","","","","","","","","","","","","key","arrowright","16.669714285714353","640","356","arrowright","true","../../test_img/19.png","自我","matching_task","朋友","[""<img src=\""../../test_img/12.png\"" width=150 style=\""vertical-align:middle\"">---自我"",""<img src=\""../../test_img/25.png\"" width=150 style=\""vertical-align:middle\"">---生人"",""<img src=\""../../test_img/19.png\"" width=150 style=\""vertical-align:middle\"">---朋友""]","","",""
"","","","","","html-keyboard-response","159","331509","0.0-9.0-0.0-0.0-0.0-1.49","null","<span style='color:GreenYellow; font-size: 70px;'>正确! </span>","null","","","","","","","","","","","","","","","","","","","","","","","","","feedback_test","",""
"","","","","","psychophysics","160","333149","0.0-9.0-0.0-0.0-0.0-0.50","634","","arrowleft","","","","","","","","","","","","","key","arrowleft","16.670408163265424","640","356","arrowright","false","../../test_img/12.png","朋友","matching_task","自我","[""<img src=\""../../test_img/12.png\"" width=150 style=\""vertical-align:middle\"">---自我"",""<img src=\""../../test_img/25.png\"" width=150 style=\""vertical-align:middle\"">---生人"",""<img src=\""../../test_img/19.png\"" width=150 style=\""vertical-align:middle\"">---朋友""]","","",""
"","","","","","html-keyboard-response","161","333656","0.0-9.0-0.0-0.0-0.0-1.50","null","<span style='color:red; font-size: 70px;'>错误! </span>","null","","","","","","","","","","","","","","","","","","","","","","","","","feedback_test","",""
"","","","","","psychophysics","162","335216","0.0-9.0-0.0-0.0-0.0-0.51","552","","arrowleft","","","","","","","","","","","","","key","arrowleft","16.6688172043012","640","356","arrowleft","true","../../test_img/12.png","自我","matching_task","自我","[""<img src=\""../../test_img/12.png\"" width=150 style=\""vertical-align:middle\"">---自我"",""<img src=\""../../test_img/25.png\"" width=150 style=\""vertical-align:middle\"">---生人"",""<img src=\""../../test_img/19.png\"" width=150 style=\""vertical-align:middle\"">---朋友""]","","",""
"","","","","","html-keyboard-response","163","335722","0.0-9.0-0.0-0.0-0.0-1.51","null","<span style='color:GreenYellow; font-size: 70px;'>正确! </span>","null","","","","","","","","","","","","","","","","","","","","","","","","","feedback_test","",""
"","","","","","psychophysics","164","337506","0.0-9.0-0.0-0.0-0.0-0.52","775","","arrowright","","","","","","","","","","","","","key","arrowright","16.66886792452852","640","356","arrowright","true","../../test_img/25.png","朋友","matching_task","生人","[""<img src=\""../../test_img/12.png\"" width=150 style=\""vertical-align:middle\"">---自我"",""<img src=\""../../test_img/25.png\"" width=150 style=\""vertical-align:middle\"">---生人"",""<img src=\""../../test_img/19.png\"" width=150 style=\""vertical-align:middle\"">---朋友""]","","",""
"","","","","","html-keyboard-response","165","338017","0.0-9.0-0.0-0.0-0.0-1.52","null","<span style='color:GreenYellow; font-size: 70px;'>正确! </span>","null","","","","","","","","","","","","","","","","","","","","","","","","","feedback_test","",""
"","","","","","psychophysics","166","339798","0.0-9.0-0.0-0.0-0.0-0.53","769","","arrowleft","","","","","","","","","","","","","key","arrowleft","16.671698113207658","640","356","arrowleft","true","../../test_img/25.png","生人","matching_task","生人","[""<img src=\""../../test_img/12.png\"" width=150 style=\""vertical-align:middle\"">---自我"",""<img src=\""../../test_img/25.png\"" width=150 style=\""vertical-align:middle\"">---生人"",""<img src=\""../../test_img/19.png\"" width=150 style=\""vertical-align:middle\"">---朋友""]","","",""
"","","","","","html-keyboard-response","167","340308","0.0-9.0-0.0-0.0-0.0-1.53","null","<span style='color:GreenYellow; font-size: 70px;'>正确! </span>","null","","","","","","","","","","","","","","","","","","","","","","","","","feedback_test","",""
"","","","","","psychophysics","168","342562","0.0-9.0-0.0-0.0-0.0-0.54","1247","","arrowleft","","","","","","","","","","","","","key","arrowleft","16.670149253731257","640","356","arrowleft","true","../../test_img/25.png","生人","matching_task","生人","[""<img src=\""../../test_img/12.png\"" width=150 style=\""vertical-align:middle\"">---自我"",""<img src=\""../../test_img/25.png\"" width=150 style=\""vertical-align:middle\"">---生人"",""<img src=\""../../test_img/19.png\"" width=150 style=\""vertical-align:middle\"">---朋友""]","","",""
"","","","","","html-keyboard-response","169","343062","0.0-9.0-0.0-0.0-0.0-1.54","null","<span style='color:GreenYellow; font-size: 70px;'>正确! </span>","null","","","","","","","","","","","","","","","","","","","","","","","","","feedback_test","",""
"","","","","","psychophysics","170","344738","0.0-9.0-0.0-0.0-0.0-0.55","673","","arrowleft","","","","","","","","","","","","","key","arrowleft","16.66900000000023","640","356","arrowleft","true","../../test_img/12.png","自我","matching_task","自我","[""<img src=\""../../test_img/12.png\"" width=150 style=\""vertical-align:middle\"">---自我"",""<img src=\""../../test_img/25.png\"" width=150 style=\""vertical-align:middle\"">---生人"",""<img src=\""../../test_img/19.png\"" width=150 style=\""vertical-align:middle\"">---朋友""]","","",""
"","","","","","html-keyboard-response","171","345247","0.0-9.0-0.0-0.0-0.0-1.55","null","<span style='color:GreenYellow; font-size: 70px;'>正确! </span>","null","","","","","","","","","","","","","","","","","","","","","","","","","feedback_test","",""
"","","","","","psychophysics","172","347010","0.0-9.0-0.0-0.0-0.0-0.56","761","","arrowright","","","","","","","","","","","","","key","arrowright","16.66153846153835","640","356","arrowright","true","../../test_img/25.png","自我","matching_task","生人","[""<img src=\""../../test_img/12.png\"" width=150 style=\""vertical-align:middle\"">---自我"",""<img src=\""../../test_img/25.png\"" width=150 style=\""vertical-align:middle\"">---生人"",""<img src=\""../../test_img/19.png\"" width=150 style=\""vertical-align:middle\"">---朋友""]","","",""
"","","","","","html-keyboard-response","173","347519","0.0-9.0-0.0-0.0-0.0-1.56","null","<span style='color:GreenYellow; font-size: 70px;'>正确! </span>","null","","","","","","","","","","","","","","","","","","","","","","","","","feedback_test","",""
"","","","","","psychophysics","174","349362","0.0-9.0-0.0-0.0-0.0-0.57","829","","arrowleft","","","","","","","","","","","","","key","arrowleft","16.6697247706422","640","356","arrowleft","true","../../test_img/19.png","朋友","matching_task","朋友","[""<img src=\""../../test_img/12.png\"" width=150 style=\""vertical-align:middle\"">---自我"",""<img src=\""../../test_img/25.png\"" width=150 style=\""vertical-align:middle\"">---生人"",""<img src=\""../../test_img/19.png\"" width=150 style=\""vertical-align:middle\"">---朋友""]","","",""
"","","","","","html-keyboard-response","175","349877","0.0-9.0-0.0-0.0-0.0-1.57","null","<span style='color:GreenYellow; font-size: 70px;'>正确! </span>","null","","","","","","","","","","","","","","","","","","","","","","","","","feedback_test","",""
"","","","","","psychophysics","176","351795","0.0-9.0-0.0-0.0-0.0-0.58","912","","arrowright","","","","","","","","","","","","","key","arrowright","16.66754385964892","640","356","arrowright","true","../../test_img/12.png","生人","matching_task","自我","[""<img src=\""../../test_img/12.png\"" width=150 style=\""vertical-align:middle\"">---自我"",""<img src=\""../../test_img/25.png\"" width=150 style=\""vertical-align:middle\"">---生人"",""<img src=\""../../test_img/19.png\"" width=150 style=\""vertical-align:middle\"">---朋友""]","","",""
"","","","","","html-keyboard-response","177","352309","0.0-9.0-0.0-0.0-0.0-1.58","null","<span style='color:GreenYellow; font-size: 70px;'>正确! </span>","null","","","","","","","","","","","","","","","","","","","","","","","","","feedback_test","",""
"","","","","","psychophysics","178","354021","0.0-9.0-0.0-0.0-0.0-0.59","703","","arrowright","","","","","","","","","","","","","key","arrowright","16.670588235293774","640","356","arrowright","true","../../test_img/19.png","生人","matching_task","朋友","[""<img src=\""../../test_img/12.png\"" width=150 style=\""vertical-align:middle\"">---自我"",""<img src=\""../../test_img/25.png\"" width=150 style=\""vertical-align:middle\"">---生人"",""<img src=\""../../test_img/19.png\"" width=150 style=\""vertical-align:middle\"">---朋友""]","","",""
"","","","","","html-keyboard-response","179","354535","0.0-9.0-0.0-0.0-0.0-1.59","null","<span style='color:GreenYellow; font-size: 70px;'>正确! </span>","null","","","","","","","","","","","","","","","","","","","","","","","","","feedback_test","",""
"","","","","","psychophysics","180","356244","0.0-9.0-0.0-0.0-0.0-0.60","708","","arrowleft","","","","","","","","","","","","","key","arrowleft","16.669306930693416","640","356","arrowleft","true","../../test_img/25.png","生人","matching_task","生人","[""<img src=\""../../test_img/12.png\"" width=150 style=\""vertical-align:middle\"">---自我"",""<img src=\""../../test_img/25.png\"" width=150 style=\""vertical-align:middle\"">---生人"",""<img src=\""../../test_img/19.png\"" width=150 style=\""vertical-align:middle\"">---朋友""]","","",""
"","","","","","html-keyboard-response","181","356748","0.0-9.0-0.0-0.0-0.0-1.60","null","<span style='color:GreenYellow; font-size: 70px;'>正确! </span>","null","","","","","","","","","","","","","","","","","","","","","","","","","feedback_test","",""
"","","","","","psychophysics","182","358481","0.0-9.0-0.0-0.0-0.0-0.61","730","","arrowright","","","","","","","","","","","","","key","arrowright","16.67009708737882","640","356","arrowright","true","../../test_img/19.png","生人","matching_task","朋友","[""<img src=\""../../test_img/12.png\"" width=150 style=\""vertical-align:middle\"">---自我"",""<img src=\""../../test_img/25.png\"" width=150 style=\""vertical-align:middle\"">---生人"",""<img src=\""../../test_img/19.png\"" width=150 style=\""vertical-align:middle\"">---朋友""]","","",""
"","","","","","html-keyboard-response","183","358988","0.0-9.0-0.0-0.0-0.0-1.61","null","<span style='color:GreenYellow; font-size: 70px;'>正确! </span>","null","","","","","","","","","","","","","","","","","","","","","","","","","feedback_test","",""
"","","","","","psychophysics","184","360725","0.0-9.0-0.0-0.0-0.0-0.62","724","","arrowleft","","","","","","","","","","","","","key","arrowleft","16.667961165048432","640","356","arrowleft","true","../../test_img/19.png","朋友","matching_task","朋友","[""<img src=\""../../test_img/12.png\"" width=150 style=\""vertical-align:middle\"">---自我"",""<img src=\""../../test_img/25.png\"" width=150 style=\""vertical-align:middle\"">---生人"",""<img src=\""../../test_img/19.png\"" width=150 style=\""vertical-align:middle\"">---朋友""]","","",""
"","","","","","html-keyboard-response","185","361234","0.0-9.0-0.0-0.0-0.0-1.62","null","<span style='color:GreenYellow; font-size: 70px;'>正确! </span>","null","","","","","","","","","","","","","","","","","","","","","","","","","feedback_test","",""
"","","","","","psychophysics","186","362914","0.0-9.0-0.0-0.0-0.0-0.63","679","","arrowleft","","","","","","","","","","","","","key","arrowleft","16.667676767677122","640","356","arrowleft","true","../../test_img/12.png","自我","matching_task","自我","[""<img src=\""../../test_img/12.png\"" width=150 style=\""vertical-align:middle\"">---自我"",""<img src=\""../../test_img/25.png\"" width=150 style=\""vertical-align:middle\"">---生人"",""<img src=\""../../test_img/19.png\"" width=150 style=\""vertical-align:middle\"">---朋友""]","","",""
"","","","","","html-keyboard-response","187","363429","0.0-9.0-0.0-0.0-0.0-1.63","null","<span style='color:GreenYellow; font-size: 70px;'>正确! </span>","null","","","","","","","","","","","","","","","","","","","","","","","","","feedback_test","",""
"","","","","","psychophysics","188","365132","0.0-9.0-0.0-0.0-0.0-0.64","695","","arrowright","","","","","","","","","","","","","key","arrowright","16.668316831683168","640","356","arrowright","true","../../test_img/12.png","生人","matching_task","自我","[""<img src=\""../../test_img/12.png\"" width=150 style=\""vertical-align:middle\"">---自我"",""<img src=\""../../test_img/25.png\"" width=150 style=\""vertical-align:middle\"">---生人"",""<img src=\""../../test_img/19.png\"" width=150 style=\""vertical-align:middle\"">---朋友""]","","",""
"","","","","","html-keyboard-response","189","365642","0.0-9.0-0.0-0.0-0.0-1.64","null","<span style='color:GreenYellow; font-size: 70px;'>正确! </span>","null","","","","","","","","","","","","","","","","","","","","","","","","","feedback_test","",""
"","","","","","psychophysics","190","367577","0.0-9.0-0.0-0.0-0.0-0.65","926","","arrowright","","","","","","","","","","","","","key","arrowright","16.669565217391305","640","356","arrowright","true","../../test_img/25.png","朋友","matching_task","生人","[""<img src=\""../../test_img/12.png\"" width=150 style=\""vertical-align:middle\"">---自我"",""<img src=\""../../test_img/25.png\"" width=150 style=\""vertical-align:middle\"">---生人"",""<img src=\""../../test_img/19.png\"" width=150 style=\""vertical-align:middle\"">---朋友""]","","",""
"","","","","","html-keyboard-response","191","368091","0.0-9.0-0.0-0.0-0.0-1.65","null","<span style='color:GreenYellow; font-size: 70px;'>正确! </span>","null","","","","","","","","","","","","","","","","","","","","","","","","","feedback_test","",""
"","","","","","psychophysics","192","369884","0.0-9.0-0.0-0.0-0.0-0.66","781","","arrowright","","","","","","","","","","","","","key","arrowright","16.669811320754718","640","356","arrowright","true","../../test_img/25.png","自我","matching_task","生人","[""<img src=\""../../test_img/12.png\"" width=150 style=\""vertical-align:middle\"">---自我"",""<img src=\""../../test_img/25.png\"" width=150 style=\""vertical-align:middle\"">---生人"",""<img src=\""../../test_img/19.png\"" width=150 style=\""vertical-align:middle\"">---朋友""]","","",""
"","","","","","html-keyboard-response","193","370389","0.0-9.0-0.0-0.0-0.0-1.66","null","<span style='color:GreenYellow; font-size: 70px;'>正确! </span>","null","","","","","","","","","","","","","","","","","","","","","","","","","feedback_test","",""
"","","","","","psychophysics","194","372251","0.0-9.0-0.0-0.0-0.0-0.67","848","","arrowleft","","","","","","","","","","","","","key","arrowleft","16.670000000000105","640","356","arrowleft","true","../../test_img/25.png","生人","matching_task","生人","[""<img src=\""../../test_img/12.png\"" width=150 style=\""vertical-align:middle\"">---自我"",""<img src=\""../../test_img/25.png\"" width=150 style=\""vertical-align:middle\"">---生人"",""<img src=\""../../test_img/19.png\"" width=150 style=\""vertical-align:middle\"">---朋友""]","","",""
"","","","","","html-keyboard-response","195","372761","0.0-9.0-0.0-0.0-0.0-1.67","null","<span style='color:GreenYellow; font-size: 70px;'>正确! </span>","null","","","","","","","","","","","","","","","","","","","","","","","","","feedback_test","",""
"","","","","","psychophysics","196","374631","0.0-9.0-0.0-0.0-0.0-0.68","862","","arrowright","","","","","","","","","","","","","key","arrowright","16.670270270269956","640","356","arrowright","true","../../test_img/12.png","朋友","matching_task","自我","[""<img src=\""../../test_img/12.png\"" width=150 style=\""vertical-align:middle\"">---自我"",""<img src=\""../../test_img/25.png\"" width=150 style=\""vertical-align:middle\"">---生人"",""<img src=\""../../test_img/19.png\"" width=150 style=\""vertical-align:middle\"">---朋友""]","","",""
"","","","","","html-keyboard-response","197","375144","0.0-9.0-0.0-0.0-0.0-1.68","null","<span style='color:GreenYellow; font-size: 70px;'>正确! </span>","null","","","","","","","","","","","","","","","","","","","","","","","","","feedback_test","",""
"","","","","","psychophysics","198","376950","0.0-9.0-0.0-0.0-0.0-0.69","795","","arrowright","","","","","","","","","","","","","key","arrowright","16.669158878504454","640","356","arrowright","true","../../test_img/19.png","自我","matching_task","朋友","[""<img src=\""../../test_img/12.png\"" width=150 style=\""vertical-align:middle\"">---自我"",""<img src=\""../../test_img/25.png\"" width=150 style=\""vertical-align:middle\"">---生人"",""<img src=\""../../test_img/19.png\"" width=150 style=\""vertical-align:middle\"">---朋友""]","","",""
"","","","","","html-keyboard-response","199","377462","0.0-9.0-0.0-0.0-0.0-1.69","null","<span style='color:GreenYellow; font-size: 70px;'>正确! </span>","null","","","","","","","","","","","","","","","","","","","","","","","","","feedback_test","",""
"","","","","","psychophysics","200","379498","0.0-9.0-0.0-0.0-0.0-0.70","1028","","arrowleft","","","","","","","","","","","","","key","arrowleft","16.669421487603305","640","356","arrowleft","true","../../test_img/19.png","朋友","matching_task","朋友","[""<img src=\""../../test_img/12.png\"" width=150 style=\""vertical-align:middle\"">---自我"",""<img src=\""../../test_img/25.png\"" width=150 style=\""vertical-align:middle\"">---生人"",""<img src=\""../../test_img/19.png\"" width=150 style=\""vertical-align:middle\"">---朋友""]","","",""
"","","","","","html-keyboard-response","201","379999","0.0-9.0-0.0-0.0-0.0-1.70","null","<span style='color:GreenYellow; font-size: 70px;'>正确! </span>","null","","","","","","","","","","","","","","","","","","","","","","","","","feedback_test","",""
"","","","","","psychophysics","202","381663","0.0-9.0-0.0-0.0-0.0-0.71","657","","arrowleft","","","","","","","","","","","","","key","arrowleft","16.670707070707305","640","356","arrowleft","true","../../test_img/12.png","自我","matching_task","自我","[""<img src=\""../../test_img/12.png\"" width=150 style=\""vertical-align:middle\"">---自我"",""<img src=\""../../test_img/25.png\"" width=150 style=\""vertical-align:middle\"">---生人"",""<img src=\""../../test_img/19.png\"" width=150 style=\""vertical-align:middle\"">---朋友""]","","",""
"","","","","","html-keyboard-response","203","382174","0.0-9.0-0.0-0.0-0.0-1.71","null","<span style='color:GreenYellow; font-size: 70px;'>正确! </span>","null","","","","","","","","","","","","","","","","","","","","","","","","","feedback_test","",""
"","","","","","html-keyboard-response","204","385431","0.0-9.0-0.0-0.0-1.0","3255","<style>.context{color:white; font-size: 35px; line-height:40px}</style>                          <div><p class='context'>您正确回答了97% 的试次。</p><p class='context'>您的平均反应时为796毫秒。</p><p class='context'>请按任意键进入休息</p></div>"," ","","","","","","","","","","","","","","","","","","","","","","","","","","",""
"","","","","","html-button-response","205","453707","0.0-9.0-0.0-0.0-2.0","68275","
                    <p>知觉匹配任务中，您还剩余4组实验</p>
                    <p>现在是休息时间，当您结束休息后，您可以点击 结束休息 按钮 继续</p>
                    <p>建议休息时间还剩余<span id=""iii"">60</span>秒</p>","0","","","","","","","","","","","","","","","","","","","","","","","","","","",""
"","","","","","psychophysics","206","455581","0.0-9.0-0.0-0.0-0.1-0.72","858","","arrowright","","","","","","","","","","","","","key","arrowright","16.67117117117117","640","356","arrowright","true","../../test_img/12.png","生人","matching_task","自我","[""<img src=\""../../test_img/12.png\"" width=150 style=\""vertical-align:middle\"">---自我"",""<img src=\""../../test_img/25.png\"" width=150 style=\""vertical-align:middle\"">---生人"",""<img src=\""../../test_img/19.png\"" width=150 style=\""vertical-align:middle\"">---朋友""]","","",""
"","","","","","html-keyboard-response","207","456090","0.0-9.0-0.0-0.0-0.1-1.72","null","<span style='color:GreenYellow; font-size: 70px;'>正确! </span>","null","","","","","","","","","","","","","","","","","","","","","","","","","feedback_test","",""
"","","","","","psychophysics","208","457775","0.0-9.0-0.0-0.0-0.1-0.73","676","","arrowleft","","","","","","","","","","","","","key","arrowleft","16.66900000000023","640","356","arrowleft","true","../../test_img/19.png","朋友","matching_task","朋友","[""<img src=\""../../test_img/12.png\"" width=150 style=\""vertical-align:middle\"">---自我"",""<img src=\""../../test_img/25.png\"" width=150 style=\""vertical-align:middle\"">---生人"",""<img src=\""../../test_img/19.png\"" width=150 style=\""vertical-align:middle\"">---朋友""]","","",""
"","","","","","html-keyboard-response","209","458285","0.0-9.0-0.0-0.0-0.1-1.73","null","<span style='color:GreenYellow; font-size: 70px;'>正确! </span>","null","","","","","","","","","","","","","","","","","","","","","","","","","feedback_test","",""
"","","","","","psychophysics","210","460150","0.0-9.0-0.0-0.0-0.1-0.74","852","","arrowleft","","","","","","","","","","","","","key","arrowleft","16.669369369369264","640","356","arrowleft","true","../../test_img/25.png","生人","matching_task","生人","[""<img src=\""../../test_img/12.png\"" width=150 style=\""vertical-align:middle\"">---自我"",""<img src=\""../../test_img/25.png\"" width=150 style=\""vertical-align:middle\"">---生人"",""<img src=\""../../test_img/19.png\"" width=150 style=\""vertical-align:middle\"">---朋友""]","","",""
"","","","","","html-keyboard-response","211","460664","0.0-9.0-0.0-0.0-0.1-1.74","null","<span style='color:GreenYellow; font-size: 70px;'>正确! </span>","null","","","","","","","","","","","","","","","","","","","","","","","","","feedback_test","",""
"","","","","","psychophysics","212","462419","0.0-9.0-0.0-0.0-0.1-0.75","751","","arrowleft","","","","","","","","","","","","","key","arrowleft","16.668761904761638","640","356","arrowleft","true","../../test_img/19.png","朋友","matching_task","朋友","[""<img src=\""../../test_img/12.png\"" width=150 style=\""vertical-align:middle\"">---自我"",""<img src=\""../../test_img/25.png\"" width=150 style=\""vertical-align:middle\"">---生人"",""<img src=\""../../test_img/19.png\"" width=150 style=\""vertical-align:middle\"">---朋友""]","","",""
"","","","","","html-keyboard-response","213","462923","0.0-9.0-0.0-0.0-0.1-1.75","null","<span style='color:GreenYellow; font-size: 70px;'>正确! </span>","null","","","","","","","","","","","","","","","","","","","","","","","","","feedback_test","",""
"","","","","","psychophysics","214","464594","0.0-9.0-0.0-0.0-0.1-0.76","665","","arrowleft","","","","","","","","","","","","","key","arrowleft","16.667676767676532","640","356","arrowleft","true","../../test_img/12.png","自我","matching_task","自我","[""<img src=\""../../test_img/12.png\"" width=150 style=\""vertical-align:middle\"">---自我"",""<img src=\""../../test_img/25.png\"" width=150 style=\""vertical-align:middle\"">---生人"",""<img src=\""../../test_img/19.png\"" width=150 style=\""vertical-align:middle\"">---朋友""]","","",""
"","","","","","html-keyboard-response","215","465098","0.0-9.0-0.0-0.0-0.1-1.76","null","<span style='color:GreenYellow; font-size: 70px;'>正确! </span>","null","","","","","","","","","","","","","","","","","","","","","","","","","feedback_test","",""
"","","","","","psychophysics","216","466822","0.0-9.0-0.0-0.0-0.1-0.77","721","","arrowright","","","","","","","","","","","","","key","arrowright","16.668932038835177","640","356","arrowright","true","../../test_img/25.png","自我","matching_task","生人","[""<img src=\""../../test_img/12.png\"" width=150 style=\""vertical-align:middle\"">---自我"",""<img src=\""../../test_img/25.png\"" width=150 style=\""vertical-align:middle\"">---生人"",""<img src=\""../../test_img/19.png\"" width=150 style=\""vertical-align:middle\"">---朋友""]","","",""
"","","","","","html-keyboard-response","217","467328","0.0-9.0-0.0-0.0-0.1-1.77","null","<span style='color:GreenYellow; font-size: 70px;'>正确! </span>","null","","","","","","","","","","","","","","","","","","","","","","","","","feedback_test","",""
"","","","","","psychophysics","218","469130","0.0-9.0-0.0-0.0-0.1-0.78","796","","arrowleft","","","","","","","","","","","","","key","arrowleft","16.670093457944034","640","356","arrowleft","true","../../test_img/25.png","生人","matching_task","生人","[""<img src=\""../../test_img/12.png\"" width=150 style=\""vertical-align:middle\"">---自我"",""<img src=\""../../test_img/25.png\"" width=150 style=\""vertical-align:middle\"">---生人"",""<img src=\""../../test_img/19.png\"" width=150 style=\""vertical-align:middle\"">---朋友""]","","",""
"","","","","","html-keyboard-response","219","469637","0.0-9.0-0.0-0.0-0.1-1.78","null","<span style='color:GreenYellow; font-size: 70px;'>正确! </span>","null","","","","","","","","","","","","","","","","","","","","","","","","","feedback_test","",""
"","","","","","psychophysics","220","471481","0.0-9.0-0.0-0.0-0.1-0.79","831","","arrowright","","","","","","","","","","","","","key","arrowright","16.6697247706422","640","356","arrowright","true","../../test_img/12.png","朋友","matching_task","自我","[""<img src=\""../../test_img/12.png\"" width=150 style=\""vertical-align:middle\"">---自我"",""<img src=\""../../test_img/25.png\"" width=150 style=\""vertical-align:middle\"">---生人"",""<img src=\""../../test_img/19.png\"" width=150 style=\""vertical-align:middle\"">---朋友""]","","",""
"","","","","","html-keyboard-response","221","471990","0.0-9.0-0.0-0.0-0.1-1.79","null","<span style='color:GreenYellow; font-size: 70px;'>正确! </span>","null","","","","","","","","","","","","","","","","","","","","","","","","","feedback_test","",""
"","","","","","psychophysics","222","473731","0.0-9.0-0.0-0.0-0.1-0.80","739","","arrowright","","","","","","","","","","","","","key","arrowright","16.66990291262136","640","356","arrowright","true","../../test_img/19.png","自我","matching_task","朋友","[""<img src=\""../../test_img/12.png\"" width=150 style=\""vertical-align:middle\"">---自我"",""<img src=\""../../test_img/25.png\"" width=150 style=\""vertical-align:middle\"">---生人"",""<img src=\""../../test_img/19.png\"" width=150 style=\""vertical-align:middle\"">---朋友""]","","",""
"","","","","","html-keyboard-response","223","474241","0.0-9.0-0.0-0.0-0.1-1.80","null","<span style='color:GreenYellow; font-size: 70px;'>正确! </span>","null","","","","","","","","","","","","","","","","","","","","","","","","","feedback_test","",""
"","","","","","psychophysics","224","476244","0.0-9.0-0.0-0.0-0.1-0.81","990","","arrowright","","","","","","","","","","","","","key","arrowright","16.669747899159763","640","356","arrowright","true","../../test_img/19.png","生人","matching_task","朋友","[""<img src=\""../../test_img/12.png\"" width=150 style=\""vertical-align:middle\"">---自我"",""<img src=\""../../test_img/25.png\"" width=150 style=\""vertical-align:middle\"">---生人"",""<img src=\""../../test_img/19.png\"" width=150 style=\""vertical-align:middle\"">---朋友""]","","",""
"","","","","","html-keyboard-response","225","476749","0.0-9.0-0.0-0.0-0.1-1.81","null","<span style='color:GreenYellow; font-size: 70px;'>正确! </span>","null","","","","","","","","","","","","","","","","","","","","","","","","","feedback_test","",""
"","","","","","psychophysics","226","478319","0.0-9.0-0.0-0.0-0.1-0.82","565","","arrowleft","","","","","","","","","","","","","key","arrowleft","16.66989247311878","640","356","arrowleft","true","../../test_img/12.png","自我","matching_task","自我","[""<img src=\""../../test_img/12.png\"" width=150 style=\""vertical-align:middle\"">---自我"",""<img src=\""../../test_img/25.png\"" width=150 style=\""vertical-align:middle\"">---生人"",""<img src=\""../../test_img/19.png\"" width=150 style=\""vertical-align:middle\"">---朋友""]","","",""
"","","","","","html-keyboard-response","227","478821","0.0-9.0-0.0-0.0-0.1-1.82","null","<span style='color:GreenYellow; font-size: 70px;'>正确! </span>","null","","","","","","","","","","","","","","","","","","","","","","","","","feedback_test","",""
"","","","","","psychophysics","228","480667","0.0-9.0-0.0-0.0-0.1-0.83","835","","arrowright","","","","","","","","","","","","","key","arrowright","16.6697247706422","640","356","arrowright","true","../../test_img/25.png","朋友","matching_task","生人","[""<img src=\""../../test_img/12.png\"" width=150 style=\""vertical-align:middle\"">---自我"",""<img src=\""../../test_img/25.png\"" width=150 style=\""vertical-align:middle\"">---生人"",""<img src=\""../../test_img/19.png\"" width=150 style=\""vertical-align:middle\"">---朋友""]","","",""
"","","","","","html-keyboard-response","229","481174","0.0-9.0-0.0-0.0-0.1-1.83","null","<span style='color:GreenYellow; font-size: 70px;'>正确! </span>","null","","","","","","","","","","","","","","","","","","","","","","","","","feedback_test","",""
"","","","","","psychophysics","230","483125","0.0-9.0-0.0-0.0-0.1-0.84","941","","arrowleft","","","","","","","","","","","","","key","arrowleft","16.66896551724168","640","356","arrowleft","true","../../test_img/12.png","自我","matching_task","自我","[""<img src=\""../../test_img/12.png\"" width=150 style=\""vertical-align:middle\"">---自我"",""<img src=\""../../test_img/25.png\"" width=150 style=\""vertical-align:middle\"">---生人"",""<img src=\""../../test_img/19.png\"" width=150 style=\""vertical-align:middle\"">---朋友""]","","",""
"","","","","","html-keyboard-response","231","483633","0.0-9.0-0.0-0.0-0.1-1.84","null","<span style='color:GreenYellow; font-size: 70px;'>正确! </span>","null","","","","","","","","","","","","","","","","","","","","","","","","","feedback_test","",""
"","","","","","psychophysics","232","485832","0.0-9.0-0.0-0.0-0.1-0.85","1193","","arrowleft","","","","","","","","","","","","","key","arrowleft","16.6702290076335","640","356","arrowleft","true","../../test_img/19.png","朋友","matching_task","朋友","[""<img src=\""../../test_img/12.png\"" width=150 style=\""vertical-align:middle\"">---自我"",""<img src=\""../../test_img/25.png\"" width=150 style=\""vertical-align:middle\"">---生人"",""<img src=\""../../test_img/19.png\"" width=150 style=\""vertical-align:middle\"">---朋友""]","","",""
"","","","","","html-keyboard-response","233","486348","0.0-9.0-0.0-0.0-0.1-1.85","null","<span style='color:GreenYellow; font-size: 70px;'>正确! </span>","null","","","","","","","","","","","","","","","","","","","","","","","","","feedback_test","",""
"","","","","","psychophysics","234","488057","0.0-9.0-0.0-0.0-0.1-0.86","707","","arrowleft","","","","","","","","","","","","","key","arrowleft","16.667647058823302","640","356","arrowleft","true","../../test_img/19.png","朋友","matching_task","朋友","[""<img src=\""../../test_img/12.png\"" width=150 style=\""vertical-align:middle\"">---自我"",""<img src=\""../../test_img/25.png\"" width=150 style=\""vertical-align:middle\"">---生人"",""<img src=\""../../test_img/19.png\"" width=150 style=\""vertical-align:middle\"">---朋友""]","","",""
"","","","","","html-keyboard-response","235","488561","0.0-9.0-0.0-0.0-0.1-1.86","null","<span style='color:GreenYellow; font-size: 70px;'>正确! </span>","null","","","","","","","","","","","","","","","","","","","","","","","","","feedback_test","",""
"","","","","","psychophysics","236","490388","0.0-9.0-0.0-0.0-0.1-0.87","815","","arrowright","","","","","","","","","","","","","key","arrowright","16.669444444444338","640","356","arrowright","true","../../test_img/25.png","自我","matching_task","生人","[""<img src=\""../../test_img/12.png\"" width=150 style=\""vertical-align:middle\"">---自我"",""<img src=\""../../test_img/25.png\"" width=150 style=\""vertical-align:middle\"">---生人"",""<img src=\""../../test_img/19.png\"" width=150 style=\""vertical-align:middle\"">---朋友""]","","",""
"","","","","","html-keyboard-response","237","490890","0.0-9.0-0.0-0.0-0.1-1.87","null","<span style='color:GreenYellow; font-size: 70px;'>正确! </span>","null","","","","","","","","","","","","","","","","","","","","","","","","","feedback_test","",""
"","","","","","psychophysics","238","492723","0.0-9.0-0.0-0.0-0.1-0.88","820","","arrowright","","","","","","","","","","","","","key","arrowright","16.668807339449756","640","356","arrowright","true","../../test_img/19.png","生人","matching_task","朋友","[""<img src=\""../../test_img/12.png\"" width=150 style=\""vertical-align:middle\"">---自我"",""<img src=\""../../test_img/25.png\"" width=150 style=\""vertical-align:middle\"">---生人"",""<img src=\""../../test_img/19.png\"" width=150 style=\""vertical-align:middle\"">---朋友""]","","",""
"","","","","","html-keyboard-response","239","493225","0.0-9.0-0.0-0.0-0.1-1.88","null","<span style='color:GreenYellow; font-size: 70px;'>正确! </span>","null","","","","","","","","","","","","","","","","","","","","","","","","","feedback_test","",""
"","","","","","psychophysics","240","494818","0.0-9.0-0.0-0.0-0.1-0.89","579","","arrowleft","","","","","","","","","","","","","key","arrowleft","16.670212765957448","640","356","arrowright","false","../../test_img/12.png","朋友","matching_task","自我","[""<img src=\""../../test_img/12.png\"" width=150 style=\""vertical-align:middle\"">---自我"",""<img src=\""../../test_img/25.png\"" width=150 style=\""vertical-align:middle\"">---生人"",""<img src=\""../../test_img/19.png\"" width=150 style=\""vertical-align:middle\"">---朋友""]","","",""
"","","","","","html-keyboard-response","241","495325","0.0-9.0-0.0-0.0-0.1-1.89","null","<span style='color:red; font-size: 70px;'>错误! </span>","null","","","","","","","","","","","","","","","","","","","","","","","","","feedback_test","",""
"","","","","","psychophysics","242","497055","0.0-9.0-0.0-0.0-0.1-0.90","717","","arrowright","","","","","","","","","","","","","key","arrowright","16.66960784313714","640","356","arrowright","true","../../test_img/25.png","朋友","matching_task","生人","[""<img src=\""../../test_img/12.png\"" width=150 style=\""vertical-align:middle\"">---自我"",""<img src=\""../../test_img/25.png\"" width=150 style=\""vertical-align:middle\"">---生人"",""<img src=\""../../test_img/19.png\"" width=150 style=\""vertical-align:middle\"">---朋友""]","","",""
"","","","","","html-keyboard-response","243","497556","0.0-9.0-0.0-0.0-0.1-1.90","null","<span style='color:GreenYellow; font-size: 70px;'>正确! </span>","null","","","","","","","","","","","","","","","","","","","","","","","","","feedback_test","",""
"","","","","","psychophysics","244","499297","0.0-9.0-0.0-0.0-0.1-0.91","739","","arrowleft","","","","","","","","","","","","","key","arrowleft","16.66990291262136","640","356","arrowleft","true","../../test_img/25.png","生人","matching_task","生人","[""<img src=\""../../test_img/12.png\"" width=150 style=\""vertical-align:middle\"">---自我"",""<img src=\""../../test_img/25.png\"" width=150 style=\""vertical-align:middle\"">---生人"",""<img src=\""../../test_img/19.png\"" width=150 style=\""vertical-align:middle\"">---朋友""]","","",""
"","","","","","html-keyboard-response","245","499798","0.0-9.0-0.0-0.0-0.1-1.91","null","<span style='color:GreenYellow; font-size: 70px;'>正确! </span>","null","","","","","","","","","","","","","","","","","","","","","","","","","feedback_test","",""
"","","","","","psychophysics","246","501533","0.0-9.0-0.0-0.0-0.1-0.92","726","","arrowleft","","","","","","","","","","","","","key","arrowleft","16.66990291262136","640","356","arrowleft","true","../../test_img/12.png","自我","matching_task","自我","[""<img src=\""../../test_img/12.png\"" width=150 style=\""vertical-align:middle\"">---自我"",""<img src=\""../../test_img/25.png\"" width=150 style=\""vertical-align:middle\"">---生人"",""<img src=\""../../test_img/19.png\"" width=150 style=\""vertical-align:middle\"">---朋友""]","","",""
"","","","","","html-keyboard-response","247","502043","0.0-9.0-0.0-0.0-0.1-1.92","null","<span style='color:GreenYellow; font-size: 70px;'>正确! </span>","null","","","","","","","","","","","","","","","","","","","","","","","","","feedback_test","",""
"","","","","","psychophysics","248","504102","0.0-9.0-0.0-0.0-0.1-0.93","1046","","arrowleft","","","","","","","","","","","","","key","arrowleft","16.668032786885245","640","356","arrowleft","true","../../test_img/25.png","生人","matching_task","生人","[""<img src=\""../../test_img/12.png\"" width=150 style=\""vertical-align:middle\"">---自我"",""<img src=\""../../test_img/25.png\"" width=150 style=\""vertical-align:middle\"">---生人"",""<img src=\""../../test_img/19.png\"" width=150 style=\""vertical-align:middle\"">---朋友""]","","",""
"","","","","","html-keyboard-response","249","504617","0.0-9.0-0.0-0.0-0.1-1.93","null","<span style='color:GreenYellow; font-size: 70px;'>正确! </span>","null","","","","","","","","","","","","","","","","","","","","","","","","","feedback_test","",""
"","","","","","psychophysics","250","506546","0.0-9.0-0.0-0.0-0.1-0.94","921","","arrowleft","","","","","","","","","","","","","key","arrowleft","16.668695652174115","640","356","arrowright","false","../../test_img/12.png","生人","matching_task","自我","[""<img src=\""../../test_img/12.png\"" width=150 style=\""vertical-align:middle\"">---自我"",""<img src=\""../../test_img/25.png\"" width=150 style=\""vertical-align:middle\"">---生人"",""<img src=\""../../test_img/19.png\"" width=150 style=\""vertical-align:middle\"">---朋友""]","","",""
"","","","","","html-keyboard-response","251","507061","0.0-9.0-0.0-0.0-0.1-1.94","null","<span style='color:red; font-size: 70px;'>错误! </span>","null","","","","","","","","","","","","","","","","","","","","","","","","","feedback_test","",""
"","","","","","psychophysics","252","508721","0.0-9.0-0.0-0.0-0.1-0.95","646","","arrowright","","","","","","","","","","","","","key","arrowright","16.668367346938776","640","356","arrowright","true","../../test_img/19.png","自我","matching_task","朋友","[""<img src=\""../../test_img/12.png\"" width=150 style=\""vertical-align:middle\"">---自我"",""<img src=\""../../test_img/25.png\"" width=150 style=\""vertical-align:middle\"">---生人"",""<img src=\""../../test_img/19.png\"" width=150 style=\""vertical-align:middle\"">---朋友""]","","",""
"","","","","","html-keyboard-response","253","509226","0.0-9.0-0.0-0.0-0.1-1.95","null","<span style='color:GreenYellow; font-size: 70px;'>正确! </span>","null","","","","","","","","","","","","","","","","","","","","","","","","","feedback_test","",""
"","","","","","psychophysics","254","510854","0.0-9.0-0.0-0.0-0.1-0.96","613","","arrowleft","","","","","","","","","","","","","key","arrowleft","16.667708333333092","640","356","arrowleft","true","../../test_img/12.png","自我","matching_task","自我","[""<img src=\""../../test_img/12.png\"" width=150 style=\""vertical-align:middle\"">---自我"",""<img src=\""../../test_img/25.png\"" width=150 style=\""vertical-align:middle\"">---生人"",""<img src=\""../../test_img/19.png\"" width=150 style=\""vertical-align:middle\"">---朋友""]","","",""
"","","","","","html-keyboard-response","255","511369","0.0-9.0-0.0-0.0-0.1-1.96","null","<span style='color:GreenYellow; font-size: 70px;'>正确! </span>","null","","","","","","","","","","","","","","","","","","","","","","","","","feedback_test","",""
