"success","timeout","failed_images","failed_audio","failed_video","trial_type","trial_index","time_elapsed","internal_node_id","rt","stimulus","response","value","item_width_mm","item_height_mm","item_width_px","px2mm","view_dist_mm","item_width_deg","px2deg","scale_factor","win_width_deg","win_height_deg","view_history","response_type","key_press","avg_frame_time","center_x","center_y","correct_response","correct","Image","word","condition","shape","association","screen_id","LeftLable","RightLable"
"true","false","[]","[]","[]","preload","0","10","0.0-0.0","","","","","","","","","","","","","","","","","","","","","","","","","","","","","",""
"","","","","","html-keyboard-response","1","65241","0.0-1.0","65231","
     <p>您好，欢迎参加本次实验。</p>
     <p>为充分保障您的权利，请确保您已经知晓并同意《参与实验同意书》以及《数据公开知情同意书》。</p>
     <p>如果您未见过上述内容，请咨询实验员。</p>
     <p>如果您选择继续实验，则表示您已经清楚两份知情同意书的内容并同意。</p>
     <p> <div style = ""color: green""><按任意键至下页></div> </p>
     "," ","","","","","","","","","","","","","","","","","","","","","","","","","","",""
"","","","","","html-keyboard-response","2","66129","0.0-2.0","887","
     <p>本实验首先需要您填写一些基本个人信息。</p>
     <p> <div style = ""color: green""><按任意键至下页></div></p>
     "," ","","","","","","","","","","","","","","","","","","","","","","","","","","",""
"","","","","","call-function","3","66130","0.0-3.0-0.0","","","","","","","","","","","","","","","","","","","","","","","","","","","","","",""
"","","","","","survey-html-form","4","84679","0.0-3.0-1.0","18547","","{""Q0"":""27""}","","","","","","","","","","","","","","","","","","","","","","","","","","",""
"","","","","","html-button-response","5","86155","0.0-3.0-2.0","1473","<p style = 'color : white'>您的性别</p>","0","","","","","","","","","","","","","","","","","","","","","","","","","","",""
"","","","","","survey-html-form","6","92247","0.0-3.0-3.0","6091","","{""Q0"":""2000""}","","","","","","","","","","","","","","","","","","","","","","","","","","",""
"","","","","","survey-html-form","7","97380","0.0-3.0-4.0","5132","","{""Q0"":""6""}","","","","","","","","","","","","","","","","","","","","","","","","","","",""
"","","","","","virtual-chinrest","8","263265","0.0-4.0","165883","","","","85.6","53.98","427.02671233173606","4.9894700072444955","573.2","8.54053424663472","50","0.8898740735094733","33.98","16","","","","","","","","","","","","","","","",""
"true","","","","","fullscreen","9","266441","0.0-5.0","","","","","","","","","","","","","","","","","","","","","","","","","","","","","",""
"","","","","","instructions","10","313122","0.0-6.0","46679","","","","","","","","","","","","","","[{""page_index"":0,""viewing_time"":11140},{""page_index"":1,""viewing_time"":7932},{""page_index"":2,""viewing_time"":16675},{""page_index"":3,""viewing_time"":8090},{""page_index"":4,""viewing_time"":2842}]","","","","","","","","","","","","","","",""
"","","","","","psychophysics","11","315635","0.0-7.0-0.0-0.0","null","","null","","","","","","","","","","","","","key","null","4.1662207357858945","853.3333333333334","476","f","false","../../test_img/15.png","朋友","prac_matching_task","生人","[""<img src=\""../../test_img/15.png\"" width=150 style=\""vertical-align:middle\"">---生人"",""<img src=\""../../test_img/22.png\"" width=150 style=\""vertical-align:middle\"">---自我"",""<img src=\""../../test_img/26.png\"" width=150 style=\""vertical-align:middle\"">---朋友""]","","",""
"","","","","","html-keyboard-response","12","315946","0.0-7.0-0.0-1.0","null","<span class='add_' style='color:yellow; font-size: 70px;'> 太慢! </span>","null","","","","","","","","","","","","","","","","","","","","","","","","","feedback_test","",""
"","","","","","psychophysics","13","318459","0.0-7.0-0.0-0.1","null","","null","","","","","","","","","","","","","key","null","4.16606666666669","853.3333333333334","476","j","false","../../test_img/22.png","自我","prac_matching_task","自我","[""<img src=\""../../test_img/15.png\"" width=150 style=\""vertical-align:middle\"">---生人"",""<img src=\""../../test_img/22.png\"" width=150 style=\""vertical-align:middle\"">---自我"",""<img src=\""../../test_img/26.png\"" width=150 style=\""vertical-align:middle\"">---朋友""]","","",""
"","","","","","html-keyboard-response","14","318773","0.0-7.0-0.0-1.1","null","<span class='add_' style='color:yellow; font-size: 70px;'> 太慢! </span>","null","","","","","","","","","","","","","","","","","","","","","","","","","feedback_test","",""
"","","","","","psychophysics","15","321279","0.0-7.0-0.0-0.2","null","","null","","","","","","","","","","","","","key","null","4.166387959866221","853.3333333333334","476","f","false","../../test_img/15.png","自我","prac_matching_task","生人","[""<img src=\""../../test_img/15.png\"" width=150 style=\""vertical-align:middle\"">---生人"",""<img src=\""../../test_img/22.png\"" width=150 style=\""vertical-align:middle\"">---自我"",""<img src=\""../../test_img/26.png\"" width=150 style=\""vertical-align:middle\"">---朋友""]","","",""
"","","","","","html-keyboard-response","16","321592","0.0-7.0-0.0-1.2","null","<span class='add_' style='color:yellow; font-size: 70px;'> 太慢! </span>","null","","","","","","","","","","","","","","","","","","","","","","","","","feedback_test","",""
"","","","","","psychophysics","17","324104","0.0-7.0-0.0-0.3","null","","null","","","","","","","","","","","","","key","null","4.165609348914877","853.3333333333334","476","j","false","../../test_img/15.png","生人","prac_matching_task","生人","[""<img src=\""../../test_img/15.png\"" width=150 style=\""vertical-align:middle\"">---生人"",""<img src=\""../../test_img/22.png\"" width=150 style=\""vertical-align:middle\"">---自我"",""<img src=\""../../test_img/26.png\"" width=150 style=\""vertical-align:middle\"">---朋友""]","","",""
"","","","","","html-keyboard-response","18","324410","0.0-7.0-0.0-1.3","null","<span class='add_' style='color:yellow; font-size: 70px;'> 太慢! </span>","null","","","","","","","","","","","","","","","","","","","","","","","","","feedback_test","",""
"","","","","","psychophysics","19","326070","0.0-7.0-0.0-0.4","658","","j","","","","","","","","","","","","","key","j","4.176903553299522","853.3333333333334","476","j","true","../../test_img/15.png","生人","prac_matching_task","生人","[""<img src=\""../../test_img/15.png\"" width=150 style=\""vertical-align:middle\"">---生人"",""<img src=\""../../test_img/22.png\"" width=150 style=\""vertical-align:middle\"">---自我"",""<img src=\""../../test_img/26.png\"" width=150 style=\""vertical-align:middle\"">---朋友""]","","",""
"","","","","","html-keyboard-response","20","326381","0.0-7.0-0.0-1.4","null","<span style='color:GreenYellow; font-size: 70px;'>正确! </span>","null","","","","","","","","","","","","","","","","","","","","","","","","","feedback_test","",""
"","","","","","psychophysics","21","328891","0.0-7.0-0.0-0.5","null","","null","","","","","","","","","","","","","key","null","4.166277128547637","853.3333333333334","476","f","false","../../test_img/26.png","自我","prac_matching_task","朋友","[""<img src=\""../../test_img/15.png\"" width=150 style=\""vertical-align:middle\"">---生人"",""<img src=\""../../test_img/22.png\"" width=150 style=\""vertical-align:middle\"">---自我"",""<img src=\""../../test_img/26.png\"" width=150 style=\""vertical-align:middle\"">---朋友""]","","",""
"","","","","","html-keyboard-response","22","329203","0.0-7.0-0.0-1.5","null","<span class='add_' style='color:yellow; font-size: 70px;'> 太慢! </span>","null","","","","","","","","","","","","","","","","","","","","","","","","","feedback_test","",""
"","","","","","psychophysics","23","331715","0.0-7.0-0.0-0.6","null","","null","","","","","","","","","","","","","key","null","4.16606666666669","853.3333333333334","476","f","false","../../test_img/22.png","生人","prac_matching_task","自我","[""<img src=\""../../test_img/15.png\"" width=150 style=\""vertical-align:middle\"">---生人"",""<img src=\""../../test_img/22.png\"" width=150 style=\""vertical-align:middle\"">---自我"",""<img src=\""../../test_img/26.png\"" width=150 style=\""vertical-align:middle\"">---朋友""]","","",""
"","","","","","html-keyboard-response","24","332027","0.0-7.0-0.0-1.6","null","<span class='add_' style='color:yellow; font-size: 70px;'> 太慢! </span>","null","","","","","","","","","","","","","","","","","","","","","","","","","feedback_test","",""
"","","","","","psychophysics","25","334540","0.0-7.0-0.0-0.7","null","","null","","","","","","","","","","","","","key","null","4.164900000000004","853.3333333333334","476","f","false","../../test_img/22.png","朋友","prac_matching_task","自我","[""<img src=\""../../test_img/15.png\"" width=150 style=\""vertical-align:middle\"">---生人"",""<img src=\""../../test_img/22.png\"" width=150 style=\""vertical-align:middle\"">---自我"",""<img src=\""../../test_img/26.png\"" width=150 style=\""vertical-align:middle\"">---朋友""]","","",""
"","","","","","html-keyboard-response","26","334843","0.0-7.0-0.0-1.7","null","<span class='add_' style='color:yellow; font-size: 70px;'> 太慢! </span>","null","","","","","","","","","","","","","","","","","","","","","","","","","feedback_test","",""
"","","","","","psychophysics","27","337348","0.0-7.0-0.0-0.8","null","","null","","","","","","","","","","","","","key","null","4.166722408026775","853.3333333333334","476","j","false","../../test_img/22.png","自我","prac_matching_task","自我","[""<img src=\""../../test_img/15.png\"" width=150 style=\""vertical-align:middle\"">---生人"",""<img src=\""../../test_img/22.png\"" width=150 style=\""vertical-align:middle\"">---自我"",""<img src=\""../../test_img/26.png\"" width=150 style=\""vertical-align:middle\"">---朋友""]","","",""
"","","","","","html-keyboard-response","28","337652","0.0-7.0-0.0-1.8","null","<span class='add_' style='color:yellow; font-size: 70px;'> 太慢! </span>","null","","","","","","","","","","","","","","","","","","","","","","","","","feedback_test","",""
"","","","","","psychophysics","29","339423","0.0-7.0-0.0-0.9","767","","f","","","","","","","","","","","","","key","f","4.165735224586219","853.3333333333334","476","j","false","../../test_img/26.png","朋友","prac_matching_task","朋友","[""<img src=\""../../test_img/15.png\"" width=150 style=\""vertical-align:middle\"">---生人"",""<img src=\""../../test_img/22.png\"" width=150 style=\""vertical-align:middle\"">---自我"",""<img src=\""../../test_img/26.png\"" width=150 style=\""vertical-align:middle\"">---朋友""]","","",""
"","","","","","html-keyboard-response","30","339731","0.0-7.0-0.0-1.9","null","<span style='color:red; font-size: 70px;'>错误! </span>","null","","","","","","","","","","","","","","","","","","","","","","","","","feedback_test","",""
"","","","","","psychophysics","31","341445","0.0-7.0-0.0-0.10","714","","j","","","","","","","","","","","","","key","j","4.166009852216662","853.3333333333334","476","f","false","../../test_img/26.png","生人","prac_matching_task","朋友","[""<img src=\""../../test_img/15.png\"" width=150 style=\""vertical-align:middle\"">---生人"",""<img src=\""../../test_img/22.png\"" width=150 style=\""vertical-align:middle\"">---自我"",""<img src=\""../../test_img/26.png\"" width=150 style=\""vertical-align:middle\"">---朋友""]","","",""
"","","","","","html-keyboard-response","32","341747","0.0-7.0-0.0-1.10","null","<span style='color:red; font-size: 70px;'>错误! </span>","null","","","","","","","","","","","","","","","","","","","","","","","","","feedback_test","",""
"","","","","","psychophysics","33","343429","0.0-7.0-0.0-0.11","678","","j","","","","","","","","","","","","","key","j","4.165586034912776","853.3333333333334","476","j","true","../../test_img/26.png","朋友","prac_matching_task","朋友","[""<img src=\""../../test_img/15.png\"" width=150 style=\""vertical-align:middle\"">---生人"",""<img src=\""../../test_img/22.png\"" width=150 style=\""vertical-align:middle\"">---自我"",""<img src=\""../../test_img/26.png\"" width=150 style=\""vertical-align:middle\"">---朋友""]","","",""
"","","","","","html-keyboard-response","34","343738","0.0-7.0-0.0-1.11","null","<span style='color:GreenYellow; font-size: 70px;'>正确! </span>","null","","","","","","","","","","","","","","","","","","","","","","","","","feedback_test","",""
"","","","","","psychophysics","35","345345","0.0-7.0-0.0-0.12","602","","j","","","","","","","","","","","","","key","j","4.166318537859039","853.3333333333334","476","j","true","../../test_img/15.png","生人","prac_matching_task","生人","[""<img src=\""../../test_img/15.png\"" width=150 style=\""vertical-align:middle\"">---生人"",""<img src=\""../../test_img/22.png\"" width=150 style=\""vertical-align:middle\"">---自我"",""<img src=\""../../test_img/26.png\"" width=150 style=\""vertical-align:middle\"">---朋友""]","","",""
"","","","","","html-keyboard-response","36","345653","0.0-7.0-0.0-1.12","null","<span style='color:GreenYellow; font-size: 70px;'>正确! </span>","null","","","","","","","","","","","","","","","","","","","","","","","","","feedback_test","",""
"","","","","","psychophysics","37","347388","0.0-7.0-0.0-0.13","733","","f","","","","","","","","","","","","","key","f","4.165617433413959","853.3333333333334","476","f","true","../../test_img/26.png","生人","prac_matching_task","朋友","[""<img src=\""../../test_img/15.png\"" width=150 style=\""vertical-align:middle\"">---生人"",""<img src=\""../../test_img/22.png\"" width=150 style=\""vertical-align:middle\"">---自我"",""<img src=\""../../test_img/26.png\"" width=150 style=\""vertical-align:middle\"">---朋友""]","","",""
"","","","","","html-keyboard-response","38","347702","0.0-7.0-0.0-1.13","null","<span style='color:GreenYellow; font-size: 70px;'>正确! </span>","null","","","","","","","","","","","","","","","","","","","","","","","","","feedback_test","",""
"","","","","","psychophysics","39","349407","0.0-7.0-0.0-0.14","702","","j","","","","","","","","","","","","","key","j","4.166093366093309","853.3333333333334","476","j","true","../../test_img/26.png","朋友","prac_matching_task","朋友","[""<img src=\""../../test_img/15.png\"" width=150 style=\""vertical-align:middle\"">---生人"",""<img src=\""../../test_img/22.png\"" width=150 style=\""vertical-align:middle\"">---自我"",""<img src=\""../../test_img/26.png\"" width=150 style=\""vertical-align:middle\"">---朋友""]","","",""
"","","","","","html-keyboard-response","40","349722","0.0-7.0-0.0-1.14","null","<span style='color:GreenYellow; font-size: 70px;'>正确! </span>","null","","","","","","","","","","","","","","","","","","","","","","","","","feedback_test","",""
"","","","","","psychophysics","41","351382","0.0-7.0-0.0-0.15","656","","j","","","","","","","","","","","","","key","j","4.16590909090912","853.3333333333334","476","j","true","../../test_img/22.png","自我","prac_matching_task","自我","[""<img src=\""../../test_img/15.png\"" width=150 style=\""vertical-align:middle\"">---生人"",""<img src=\""../../test_img/22.png\"" width=150 style=\""vertical-align:middle\"">---自我"",""<img src=\""../../test_img/26.png\"" width=150 style=\""vertical-align:middle\"">---朋友""]","","",""
"","","","","","html-keyboard-response","42","351695","0.0-7.0-0.0-1.15","null","<span style='color:GreenYellow; font-size: 70px;'>正确! </span>","null","","","","","","","","","","","","","","","","","","","","","","","","","feedback_test","",""
"","","","","","psychophysics","43","353283","0.0-7.0-0.0-0.16","583","","j","","","","","","","","","","","","","key","j","4.165343915343915","853.3333333333334","476","j","true","../../test_img/22.png","自我","prac_matching_task","自我","[""<img src=\""../../test_img/15.png\"" width=150 style=\""vertical-align:middle\"">---生人"",""<img src=\""../../test_img/22.png\"" width=150 style=\""vertical-align:middle\"">---自我"",""<img src=\""../../test_img/26.png\"" width=150 style=\""vertical-align:middle\"">---朋友""]","","",""
"","","","","","html-keyboard-response","44","353596","0.0-7.0-0.0-1.16","null","<span style='color:GreenYellow; font-size: 70px;'>正确! </span>","null","","","","","","","","","","","","","","","","","","","","","","","","","feedback_test","",""
"","","","","","psychophysics","45","355607","0.0-7.0-0.0-0.17","1007","","f","","","","","","","","","","","","","key","f","4.165762004175292","853.3333333333334","476","f","true","../../test_img/22.png","朋友","prac_matching_task","自我","[""<img src=\""../../test_img/15.png\"" width=150 style=\""vertical-align:middle\"">---生人"",""<img src=\""../../test_img/22.png\"" width=150 style=\""vertical-align:middle\"">---自我"",""<img src=\""../../test_img/26.png\"" width=150 style=\""vertical-align:middle\"">---朋友""]","","",""
"","","","","","html-keyboard-response","46","355910","0.0-7.0-0.0-1.17","null","<span style='color:GreenYellow; font-size: 70px;'>正确! </span>","null","","","","","","","","","","","","","","","","","","","","","","","","","feedback_test","",""
"","","","","","psychophysics","47","357799","0.0-7.0-0.0-0.18","887","","f","","","","","","","","","","","","","key","f","4.166000000000026","853.3333333333334","476","j","false","../../test_img/26.png","朋友","prac_matching_task","朋友","[""<img src=\""../../test_img/15.png\"" width=150 style=\""vertical-align:middle\"">---生人"",""<img src=\""../../test_img/22.png\"" width=150 style=\""vertical-align:middle\"">---自我"",""<img src=\""../../test_img/26.png\"" width=150 style=\""vertical-align:middle\"">---朋友""]","","",""
"","","","","","html-keyboard-response","48","358109","0.0-7.0-0.0-1.18","null","<span style='color:red; font-size: 70px;'>错误! </span>","null","","","","","","","","","","","","","","","","","","","","","","","","","feedback_test","",""
"","","","","","psychophysics","49","360434","0.0-7.0-0.0-0.19","1322","","f","","","","","","","","","","","","","key","f","4.166126126126042","853.3333333333334","476","f","true","../../test_img/26.png","自我","prac_matching_task","朋友","[""<img src=\""../../test_img/15.png\"" width=150 style=\""vertical-align:middle\"">---生人"",""<img src=\""../../test_img/22.png\"" width=150 style=\""vertical-align:middle\"">---自我"",""<img src=\""../../test_img/26.png\"" width=150 style=\""vertical-align:middle\"">---朋友""]","","",""
"","","","","","html-keyboard-response","50","360746","0.0-7.0-0.0-1.19","null","<span style='color:GreenYellow; font-size: 70px;'>正确! </span>","null","","","","","","","","","","","","","","","","","","","","","","","","","feedback_test","",""
"","","","","","psychophysics","51","362780","0.0-7.0-0.0-0.20","1031","","f","","","","","","","","","","","","","key","f","4.166185567010261","853.3333333333334","476","f","true","../../test_img/15.png","朋友","prac_matching_task","生人","[""<img src=\""../../test_img/15.png\"" width=150 style=\""vertical-align:middle\"">---生人"",""<img src=\""../../test_img/22.png\"" width=150 style=\""vertical-align:middle\"">---自我"",""<img src=\""../../test_img/26.png\"" width=150 style=\""vertical-align:middle\"">---朋友""]","","",""
"","","","","","html-keyboard-response","52","363086","0.0-7.0-0.0-1.20","null","<span style='color:GreenYellow; font-size: 70px;'>正确! </span>","null","","","","","","","","","","","","","","","","","","","","","","","","","feedback_test","",""
"","","","","","psychophysics","53","365032","0.0-7.0-0.0-0.21","941","","f","","","","","","","","","","","","","key","f","4.166306695464363","853.3333333333334","476","f","true","../../test_img/22.png","生人","prac_matching_task","自我","[""<img src=\""../../test_img/15.png\"" width=150 style=\""vertical-align:middle\"">---生人"",""<img src=\""../../test_img/22.png\"" width=150 style=\""vertical-align:middle\"">---自我"",""<img src=\""../../test_img/26.png\"" width=150 style=\""vertical-align:middle\"">---朋友""]","","",""
"","","","","","html-keyboard-response","54","365337","0.0-7.0-0.0-1.21","null","<span style='color:GreenYellow; font-size: 70px;'>正确! </span>","null","","","","","","","","","","","","","","","","","","","","","","","","","feedback_test","",""
"","","","","","psychophysics","55","367125","0.0-7.0-0.0-0.22","786","","j","","","","","","","","","","","","","key","j","4.165822014051617","853.3333333333334","476","j","true","../../test_img/15.png","生人","prac_matching_task","生人","[""<img src=\""../../test_img/15.png\"" width=150 style=\""vertical-align:middle\"">---生人"",""<img src=\""../../test_img/22.png\"" width=150 style=\""vertical-align:middle\"">---自我"",""<img src=\""../../test_img/26.png\"" width=150 style=\""vertical-align:middle\"">---朋友""]","","",""
"","","","","","html-keyboard-response","56","367433","0.0-7.0-0.0-1.22","null","<span style='color:GreenYellow; font-size: 70px;'>正确! </span>","null","","","","","","","","","","","","","","","","","","","","","","","","","feedback_test","",""
"","","","","","psychophysics","57","369416","0.0-7.0-0.0-0.23","980","","f","","","","","","","","","","","","","key","f","4.165961945031713","853.3333333333334","476","f","true","../../test_img/15.png","自我","prac_matching_task","生人","[""<img src=\""../../test_img/15.png\"" width=150 style=\""vertical-align:middle\"">---生人"",""<img src=\""../../test_img/22.png\"" width=150 style=\""vertical-align:middle\"">---自我"",""<img src=\""../../test_img/26.png\"" width=150 style=\""vertical-align:middle\"">---朋友""]","","",""
"","","","","","html-keyboard-response","58","369728","0.0-7.0-0.0-1.23","null","<span style='color:GreenYellow; font-size: 70px;'>正确! </span>","null","","","","","","","","","","","","","","","","","","","","","","","","","feedback_test","",""
"","","","","","html-keyboard-response","59","377075","0.0-7.0-1.0-0.0","7345","<style>.context{color:white; font-size: 35px; line-height:40px}</style>                          <div><p class='context'>您正确回答了54% 的试次。</p ><p class='context'>您的平均反应时为821毫秒。</p >"," ","","","","","","","","","","","","","","","","","","","","","","","","","","",""
"","","","","","instructions","60","394917","0.0-7.0-1.0-1.0","17840","","","","","","","","","","","","","","[{""page_index"":0,""viewing_time"":4586},{""page_index"":1,""viewing_time"":10798},{""page_index"":2,""viewing_time"":1336},{""page_index"":3,""viewing_time"":1121}]","","","","","","","","","","","","","","",""
"","","","","","psychophysics","61","397428","0.0-7.1-0.1-0.24","null","","null","","","","","","","","","","","","","key","null","4.166333333333314","853.3333333333334","476","j","false","../../test_img/22.png","自我","prac_matching_task","自我","[""<img src=\""../../test_img/15.png\"" width=150 style=\""vertical-align:middle\"">---生人"",""<img src=\""../../test_img/22.png\"" width=150 style=\""vertical-align:middle\"">---自我"",""<img src=\""../../test_img/26.png\"" width=150 style=\""vertical-align:middle\"">---朋友""]","","",""
"","","","","","html-keyboard-response","62","397732","0.0-7.1-0.1-1.24","null","<span class='add_' style='color:yellow; font-size: 70px;'> 太慢! </span>","null","","","","","","","","","","","","","","","","","","","","","","","","","feedback_test","",""
"","","","","","psychophysics","63","400077","0.0-7.1-0.1-0.25","1341","","f","","","","","","","","","","","","","key","f","4.166189624329201","853.3333333333334","476","j","false","../../test_img/22.png","自我","prac_matching_task","自我","[""<img src=\""../../test_img/15.png\"" width=150 style=\""vertical-align:middle\"">---生人"",""<img src=\""../../test_img/22.png\"" width=150 style=\""vertical-align:middle\"">---自我"",""<img src=\""../../test_img/26.png\"" width=150 style=\""vertical-align:middle\"">---朋友""]","","",""
"","","","","","html-keyboard-response","64","400384","0.0-7.1-0.1-1.25","null","<span style='color:red; font-size: 70px;'>错误! </span>","null","","","","","","","","","","","","","","","","","","","","","","","","","feedback_test","",""
"","","","","","psychophysics","65","402398","0.0-7.1-0.1-0.26","1008","","f","","","","","","","","","","","","","key","f","4.166125000000102","853.3333333333334","476","f","true","../../test_img/15.png","朋友","prac_matching_task","生人","[""<img src=\""../../test_img/15.png\"" width=150 style=\""vertical-align:middle\"">---生人"",""<img src=\""../../test_img/22.png\"" width=150 style=\""vertical-align:middle\"">---自我"",""<img src=\""../../test_img/26.png\"" width=150 style=\""vertical-align:middle\"">---朋友""]","","",""
"","","","","","html-keyboard-response","66","402714","0.0-7.1-0.1-1.26","null","<span style='color:GreenYellow; font-size: 70px;'>正确! </span>","null","","","","","","","","","","","","","","","","","","","","","","","","","feedback_test","",""
"","","","","","psychophysics","67","404559","0.0-7.1-0.1-0.27","844","","j","","","","","","","","","","","","","key","j","4.166227272727305","853.3333333333334","476","j","true","../../test_img/26.png","朋友","prac_matching_task","朋友","[""<img src=\""../../test_img/15.png\"" width=150 style=\""vertical-align:middle\"">---生人"",""<img src=\""../../test_img/22.png\"" width=150 style=\""vertical-align:middle\"">---自我"",""<img src=\""../../test_img/26.png\"" width=150 style=\""vertical-align:middle\"">---朋友""]","","",""
"","","","","","html-keyboard-response","68","404872","0.0-7.1-0.1-1.27","null","<span style='color:GreenYellow; font-size: 70px;'>正确! </span>","null","","","","","","","","","","","","","","","","","","","","","","","","","feedback_test","",""
"","","","","","psychophysics","69","406567","0.0-7.1-0.1-0.28","691","","f","","","","","","","","","","","","","key","f","4.1660891089109775","853.3333333333334","476","f","true","../../test_img/22.png","朋友","prac_matching_task","自我","[""<img src=\""../../test_img/15.png\"" width=150 style=\""vertical-align:middle\"">---生人"",""<img src=\""../../test_img/22.png\"" width=150 style=\""vertical-align:middle\"">---自我"",""<img src=\""../../test_img/26.png\"" width=150 style=\""vertical-align:middle\"">---朋友""]","","",""
"","","","","","html-keyboard-response","70","406879","0.0-7.1-0.1-1.28","null","<span style='color:GreenYellow; font-size: 70px;'>正确! </span>","null","","","","","","","","","","","","","","","","","","","","","","","","","feedback_test","",""
"","","","","","psychophysics","71","408582","0.0-7.1-0.1-0.29","701","","j","","","","","","","","","","","","","key","j","4.165615763546775","853.3333333333334","476","j","true","../../test_img/15.png","生人","prac_matching_task","生人","[""<img src=\""../../test_img/15.png\"" width=150 style=\""vertical-align:middle\"">---生人"",""<img src=\""../../test_img/22.png\"" width=150 style=\""vertical-align:middle\"">---自我"",""<img src=\""../../test_img/26.png\"" width=150 style=\""vertical-align:middle\"">---朋友""]","","",""
"","","","","","html-keyboard-response","72","408897","0.0-7.1-0.1-1.29","null","<span style='color:GreenYellow; font-size: 70px;'>正确! </span>","null","","","","","","","","","","","","","","","","","","","","","","","","","feedback_test","",""
"","","","","","psychophysics","73","410686","0.0-7.1-0.1-0.30","785","","f","","","","","","","","","","","","","key","f","4.166431924882547","853.3333333333334","476","f","true","../../test_img/22.png","生人","prac_matching_task","自我","[""<img src=\""../../test_img/15.png\"" width=150 style=\""vertical-align:middle\"">---生人"",""<img src=\""../../test_img/22.png\"" width=150 style=\""vertical-align:middle\"">---自我"",""<img src=\""../../test_img/26.png\"" width=150 style=\""vertical-align:middle\"">---朋友""]","","",""
"","","","","","html-keyboard-response","74","410989","0.0-7.1-0.1-1.30","null","<span style='color:GreenYellow; font-size: 70px;'>正确! </span>","null","","","","","","","","","","","","","","","","","","","","","","","","","feedback_test","",""
"","","","","","psychophysics","75","412642","0.0-7.1-0.1-0.31","649","","j","","","","","","","","","","","","","key","j","4.166412213740517","853.3333333333334","476","j","true","../../test_img/26.png","朋友","prac_matching_task","朋友","[""<img src=\""../../test_img/15.png\"" width=150 style=\""vertical-align:middle\"">---生人"",""<img src=\""../../test_img/22.png\"" width=150 style=\""vertical-align:middle\"">---自我"",""<img src=\""../../test_img/26.png\"" width=150 style=\""vertical-align:middle\"">---朋友""]","","",""
"","","","","","html-keyboard-response","76","412949","0.0-7.1-0.1-1.31","null","<span style='color:GreenYellow; font-size: 70px;'>正确! </span>","null","","","","","","","","","","","","","","","","","","","","","","","","","feedback_test","",""
"","","","","","psychophysics","77","415161","0.0-7.1-0.1-0.32","1210","","f","","","","","","","","","","","","","key","f","4.166098484848507","853.3333333333334","476","f","true","../../test_img/26.png","自我","prac_matching_task","朋友","[""<img src=\""../../test_img/15.png\"" width=150 style=\""vertical-align:middle\"">---生人"",""<img src=\""../../test_img/22.png\"" width=150 style=\""vertical-align:middle\"">---自我"",""<img src=\""../../test_img/26.png\"" width=150 style=\""vertical-align:middle\"">---朋友""]","","",""
"","","","","","html-keyboard-response","78","415474","0.0-7.1-0.1-1.32","null","<span style='color:GreenYellow; font-size: 70px;'>正确! </span>","null","","","","","","","","","","","","","","","","","","","","","","","","","feedback_test","",""
"","","","","","psychophysics","79","417285","0.0-7.1-0.1-0.33","809","","f","","","","","","","","","","","","","key","f","4.165197215777289","853.3333333333334","476","f","true","../../test_img/15.png","自我","prac_matching_task","生人","[""<img src=\""../../test_img/15.png\"" width=150 style=\""vertical-align:middle\"">---生人"",""<img src=\""../../test_img/22.png\"" width=150 style=\""vertical-align:middle\"">---自我"",""<img src=\""../../test_img/26.png\"" width=150 style=\""vertical-align:middle\"">---朋友""]","","",""
"","","","","","html-keyboard-response","80","417588","0.0-7.1-0.1-1.33","null","<span style='color:GreenYellow; font-size: 70px;'>正确! </span>","null","","","","","","","","","","","","","","","","","","","","","","","","","feedback_test","",""
"","","","","","psychophysics","81","419257","0.0-7.1-0.1-0.34","665","","f","","","","","","","","","","","","","key","f","4.165592964824164","853.3333333333334","476","f","true","../../test_img/26.png","生人","prac_matching_task","朋友","[""<img src=\""../../test_img/15.png\"" width=150 style=\""vertical-align:middle\"">---生人"",""<img src=\""../../test_img/22.png\"" width=150 style=\""vertical-align:middle\"">---自我"",""<img src=\""../../test_img/26.png\"" width=150 style=\""vertical-align:middle\"">---朋友""]","","",""
"","","","","","html-keyboard-response","82","419561","0.0-7.1-0.1-1.34","null","<span style='color:GreenYellow; font-size: 70px;'>正确! </span>","null","","","","","","","","","","","","","","","","","","","","","","","","","feedback_test","",""
"","","","","","psychophysics","83","421321","0.0-7.1-0.1-0.35","758","","j","","","","","","","","","","","","","key","j","4.16596666666668","853.3333333333334","476","j","true","../../test_img/15.png","生人","prac_matching_task","生人","[""<img src=\""../../test_img/15.png\"" width=150 style=\""vertical-align:middle\"">---生人"",""<img src=\""../../test_img/22.png\"" width=150 style=\""vertical-align:middle\"">---自我"",""<img src=\""../../test_img/26.png\"" width=150 style=\""vertical-align:middle\"">---朋友""]","","",""
"","","","","","html-keyboard-response","84","421627","0.0-7.1-0.1-1.35","null","<span style='color:GreenYellow; font-size: 70px;'>正确! </span>","null","","","","","","","","","","","","","","","","","","","","","","","","","feedback_test","",""
"","","","","","psychophysics","85","423611","0.0-7.1-0.1-0.36","982","","f","","","","","","","","","","","","","key","f","4.165750528541276","853.3333333333334","476","f","true","../../test_img/15.png","自我","prac_matching_task","生人","[""<img src=\""../../test_img/15.png\"" width=150 style=\""vertical-align:middle\"">---生人"",""<img src=\""../../test_img/22.png\"" width=150 style=\""vertical-align:middle\"">---自我"",""<img src=\""../../test_img/26.png\"" width=150 style=\""vertical-align:middle\"">---朋友""]","","",""
"","","","","","html-keyboard-response","86","423913","0.0-7.1-0.1-1.36","null","<span style='color:GreenYellow; font-size: 70px;'>正确! </span>","null","","","","","","","","","","","","","","","","","","","","","","","","","feedback_test","",""
"","","","","","psychophysics","87","425611","0.0-7.1-0.1-0.37","695","","f","","","","","","","","","","","","","key","f","4.166584158415813","853.3333333333334","476","f","true","../../test_img/26.png","生人","prac_matching_task","朋友","[""<img src=\""../../test_img/15.png\"" width=150 style=\""vertical-align:middle\"">---生人"",""<img src=\""../../test_img/22.png\"" width=150 style=\""vertical-align:middle\"">---自我"",""<img src=\""../../test_img/26.png\"" width=150 style=\""vertical-align:middle\"">---朋友""]","","",""
"","","","","","html-keyboard-response","88","425921","0.0-7.1-0.1-1.37","null","<span style='color:GreenYellow; font-size: 70px;'>正确! </span>","null","","","","","","","","","","","","","","","","","","","","","","","","","feedback_test","",""
"","","","","","psychophysics","89","427733","0.0-7.1-0.1-0.38","809","","f","","","","","","","","","","","","","key","f","4.165893271461717","853.3333333333334","476","f","true","../../test_img/26.png","自我","prac_matching_task","朋友","[""<img src=\""../../test_img/15.png\"" width=150 style=\""vertical-align:middle\"">---生人"",""<img src=\""../../test_img/22.png\"" width=150 style=\""vertical-align:middle\"">---自我"",""<img src=\""../../test_img/26.png\"" width=150 style=\""vertical-align:middle\"">---朋友""]","","",""
"","","","","","html-keyboard-response","90","428048","0.0-7.1-0.1-1.38","null","<span style='color:GreenYellow; font-size: 70px;'>正确! </span>","null","","","","","","","","","","","","","","","","","","","","","","","","","feedback_test","",""
"","","","","","psychophysics","91","430232","0.0-7.1-0.1-0.39","1181","","j","","","","","","","","","","","","","key","j","4.1659615384615165","853.3333333333334","476","j","true","../../test_img/22.png","自我","prac_matching_task","自我","[""<img src=\""../../test_img/15.png\"" width=150 style=\""vertical-align:middle\"">---生人"",""<img src=\""../../test_img/22.png\"" width=150 style=\""vertical-align:middle\"">---自我"",""<img src=\""../../test_img/26.png\"" width=150 style=\""vertical-align:middle\"">---朋友""]","","",""
"","","","","","html-keyboard-response","92","430537","0.0-7.1-0.1-1.39","null","<span style='color:GreenYellow; font-size: 70px;'>正确! </span>","null","","","","","","","","","","","","","","","","","","","","","","","","","feedback_test","",""
"","","","","","psychophysics","93","432630","0.0-7.1-0.1-0.40","1090","","j","","","","","","","","","","","","","key","j","4.165731462925758","853.3333333333334","476","j","true","../../test_img/22.png","自我","prac_matching_task","自我","[""<img src=\""../../test_img/15.png\"" width=150 style=\""vertical-align:middle\"">---生人"",""<img src=\""../../test_img/22.png\"" width=150 style=\""vertical-align:middle\"">---自我"",""<img src=\""../../test_img/26.png\"" width=150 style=\""vertical-align:middle\"">---朋友""]","","",""
"","","","","","html-keyboard-response","94","432933","0.0-7.1-0.1-1.40","null","<span style='color:GreenYellow; font-size: 70px;'>正确! </span>","null","","","","","","","","","","","","","","","","","","","","","","","","","feedback_test","",""
"","","","","","psychophysics","95","434803","0.0-7.1-0.1-0.41","867","","j","","","","","","","","","","","","","key","j","4.165919282511211","853.3333333333334","476","j","true","../../test_img/26.png","朋友","prac_matching_task","朋友","[""<img src=\""../../test_img/15.png\"" width=150 style=\""vertical-align:middle\"">---生人"",""<img src=\""../../test_img/22.png\"" width=150 style=\""vertical-align:middle\"">---自我"",""<img src=\""../../test_img/26.png\"" width=150 style=\""vertical-align:middle\"">---朋友""]","","",""
"","","","","","html-keyboard-response","96","435117","0.0-7.1-0.1-1.41","null","<span style='color:GreenYellow; font-size: 70px;'>正确! </span>","null","","","","","","","","","","","","","","","","","","","","","","","","","feedback_test","",""
"","","","","","psychophysics","97","436875","0.0-7.1-0.1-0.42","756","","j","","","","","","","","","","","","","key","j","4.16572792362769","853.3333333333334","476","j","true","../../test_img/15.png","生人","prac_matching_task","生人","[""<img src=\""../../test_img/15.png\"" width=150 style=\""vertical-align:middle\"">---生人"",""<img src=\""../../test_img/22.png\"" width=150 style=\""vertical-align:middle\"">---自我"",""<img src=\""../../test_img/26.png\"" width=150 style=\""vertical-align:middle\"">---朋友""]","","",""
"","","","","","html-keyboard-response","98","437188","0.0-7.1-0.1-1.42","null","<span style='color:GreenYellow; font-size: 70px;'>正确! </span>","null","","","","","","","","","","","","","","","","","","","","","","","","","feedback_test","",""
"","","","","","psychophysics","99","439034","0.0-7.1-0.1-0.43","840","","f","","","","","","","","","","","","","key","f","4.166136363636311","853.3333333333334","476","f","true","../../test_img/22.png","生人","prac_matching_task","自我","[""<img src=\""../../test_img/15.png\"" width=150 style=\""vertical-align:middle\"">---生人"",""<img src=\""../../test_img/22.png\"" width=150 style=\""vertical-align:middle\"">---自我"",""<img src=\""../../test_img/26.png\"" width=150 style=\""vertical-align:middle\"">---朋友""]","","",""
"","","","","","html-keyboard-response","100","439342","0.0-7.1-0.1-1.43","null","<span style='color:GreenYellow; font-size: 70px;'>正确! </span>","null","","","","","","","","","","","","","","","","","","","","","","","","","feedback_test","",""
"","","","","","psychophysics","101","441042","0.0-7.1-0.1-0.44","695","","f","","","","","","","","","","","","","key","f","4.166419753086333","853.3333333333334","476","f","true","../../test_img/15.png","朋友","prac_matching_task","生人","[""<img src=\""../../test_img/15.png\"" width=150 style=\""vertical-align:middle\"">---生人"",""<img src=\""../../test_img/22.png\"" width=150 style=\""vertical-align:middle\"">---自我"",""<img src=\""../../test_img/26.png\"" width=150 style=\""vertical-align:middle\"">---朋友""]","","",""
"","","","","","html-keyboard-response","102","441345","0.0-7.1-0.1-1.44","null","<span style='color:GreenYellow; font-size: 70px;'>正确! </span>","null","","","","","","","","","","","","","","","","","","","","","","","","","feedback_test","",""
"","","","","","psychophysics","103","443065","0.0-7.1-0.1-0.45","718","","f","","","","","","","","","","","","","key","f","4.1658536585365855","853.3333333333334","476","f","true","../../test_img/22.png","朋友","prac_matching_task","自我","[""<img src=\""../../test_img/15.png\"" width=150 style=\""vertical-align:middle\"">---生人"",""<img src=\""../../test_img/22.png\"" width=150 style=\""vertical-align:middle\"">---自我"",""<img src=\""../../test_img/26.png\"" width=150 style=\""vertical-align:middle\"">---朋友""]","","",""
"","","","","","html-keyboard-response","104","443375","0.0-7.1-0.1-1.45","null","<span style='color:GreenYellow; font-size: 70px;'>正确! </span>","null","","","","","","","","","","","","","","","","","","","","","","","","","feedback_test","",""
"","","","","","psychophysics","105","445320","0.0-7.1-0.1-0.46","944","","j","","","","","","","","","","","","","key","j","4.165948275862069","853.3333333333334","476","j","true","../../test_img/15.png","生人","prac_matching_task","生人","[""<img src=\""../../test_img/15.png\"" width=150 style=\""vertical-align:middle\"">---生人"",""<img src=\""../../test_img/22.png\"" width=150 style=\""vertical-align:middle\"">---自我"",""<img src=\""../../test_img/26.png\"" width=150 style=\""vertical-align:middle\"">---朋友""]","","",""
"","","","","","html-keyboard-response","106","445624","0.0-7.1-0.1-1.46","null","<span style='color:GreenYellow; font-size: 70px;'>正确! </span>","null","","","","","","","","","","","","","","","","","","","","","","","","","feedback_test","",""
"","","","","","psychophysics","107","447581","0.0-7.1-0.1-0.47","955","","j","","","","","","","","","","","","","key","j","4.165524625267641","853.3333333333334","476","j","true","../../test_img/26.png","朋友","prac_matching_task","朋友","[""<img src=\""../../test_img/15.png\"" width=150 style=\""vertical-align:middle\"">---生人"",""<img src=\""../../test_img/22.png\"" width=150 style=\""vertical-align:middle\"">---自我"",""<img src=\""../../test_img/26.png\"" width=150 style=\""vertical-align:middle\"">---朋友""]","","",""
"","","","","","html-keyboard-response","108","447883","0.0-7.1-0.1-1.47","null","<span style='color:GreenYellow; font-size: 70px;'>正确! </span>","null","","","","","","","","","","","","","","","","","","","","","","","","","feedback_test","",""
"","","","","","html-keyboard-response","109","463290","0.0-8.0","15405","<style>.context{color:white; font-size: 35px; line-height:40px}</style>                          <div><p class='context'>您正确回答了92% 的试次。</p ><p class='context'>您的平均反应时为848毫秒。</p ><p class='context'>恭喜您完成练习。按任意键进入知觉匹配任务正式实验。</p ><p style = 'color:lightgreen; font-size: 35px;' >正式实验与练习要求相同，请您尽可能又快又准地进行按键反应</p><p class='footer' style='font-size: 22px; line-height:40px;'>在实验过程中请将您分别将<span style='color: lightgreen;'>左手和右手的食指</span>放在电脑键盘的相应键位上进行按键。</p >"," ","","","","","","","","","","","","","","","","","","","","","","","","","","",""
"","","","","","psychophysics","110","465625","0.0-9.0-0.0-0.0-0.0-0.0","1331","","j","","","","","","","","","","","","","key","j","4.1660071942445835","853.3333333333334","476","j","true","../../test_img/22.png","自我","matching_task","自我","[""<img src=\""../../test_img/15.png\"" width=150 style=\""vertical-align:middle\"">---生人"",""<img src=\""../../test_img/22.png\"" width=150 style=\""vertical-align:middle\"">---自我"",""<img src=\""../../test_img/26.png\"" width=150 style=\""vertical-align:middle\"">---朋友""]","","",""
"","","","","","html-keyboard-response","111","466133","0.0-9.0-0.0-0.0-0.0-1.0","null","<span style='color:GreenYellow; font-size: 70px;'>正确! </span>","null","","","","","","","","","","","","","","","","","","","","","","","","","feedback_test","",""
"","","","","","psychophysics","112","468057","0.0-9.0-0.0-0.0-0.0-0.1","921","","f","","","","","","","","","","","","","key","f","4.166013071895323","853.3333333333334","476","f","true","../../test_img/15.png","朋友","matching_task","生人","[""<img src=\""../../test_img/15.png\"" width=150 style=\""vertical-align:middle\"">---生人"",""<img src=\""../../test_img/22.png\"" width=150 style=\""vertical-align:middle\"">---自我"",""<img src=\""../../test_img/26.png\"" width=150 style=\""vertical-align:middle\"">---朋友""]","","",""
"","","","","","html-keyboard-response","113","468571","0.0-9.0-0.0-0.0-0.0-1.1","null","<span style='color:GreenYellow; font-size: 70px;'>正确! </span>","null","","","","","","","","","","","","","","","","","","","","","","","","","feedback_test","",""
"","","","","","psychophysics","114","470650","0.0-9.0-0.0-0.0-0.0-0.2","1077","","j","","","","","","","","","","","","","key","j","4.16633064516129","853.3333333333334","476","j","true","../../test_img/15.png","生人","matching_task","生人","[""<img src=\""../../test_img/15.png\"" width=150 style=\""vertical-align:middle\"">---生人"",""<img src=\""../../test_img/22.png\"" width=150 style=\""vertical-align:middle\"">---自我"",""<img src=\""../../test_img/26.png\"" width=150 style=\""vertical-align:middle\"">---朋友""]","","",""
"","","","","","html-keyboard-response","115","471161","0.0-9.0-0.0-0.0-0.0-1.2","null","<span style='color:GreenYellow; font-size: 70px;'>正确! </span>","null","","","","","","","","","","","","","","","","","","","","","","","","","feedback_test","",""
"","","","","","psychophysics","116","473043","0.0-9.0-0.0-0.0-0.0-0.3","879","","f","","","","","","","","","","","","","key","f","4.166517857142935","853.3333333333334","476","f","true","../../test_img/22.png","朋友","matching_task","自我","[""<img src=\""../../test_img/15.png\"" width=150 style=\""vertical-align:middle\"">---生人"",""<img src=\""../../test_img/22.png\"" width=150 style=\""vertical-align:middle\"">---自我"",""<img src=\""../../test_img/26.png\"" width=150 style=\""vertical-align:middle\"">---朋友""]","","",""
"","","","","","html-keyboard-response","117","473553","0.0-9.0-0.0-0.0-0.0-1.3","null","<span style='color:GreenYellow; font-size: 70px;'>正确! </span>","null","","","","","","","","","","","","","","","","","","","","","","","","","feedback_test","",""
"","","","","","psychophysics","118","475319","0.0-9.0-0.0-0.0-0.0-0.4","764","","f","","","","","","","","","","","","","key","f","4.165795724465669","853.3333333333334","476","f","true","../../test_img/15.png","自我","matching_task","生人","[""<img src=\""../../test_img/15.png\"" width=150 style=\""vertical-align:middle\"">---生人"",""<img src=\""../../test_img/22.png\"" width=150 style=\""vertical-align:middle\"">---自我"",""<img src=\""../../test_img/26.png\"" width=150 style=\""vertical-align:middle\"">---朋友""]","","",""
"","","","","","html-keyboard-response","119","475831","0.0-9.0-0.0-0.0-0.0-1.4","null","<span style='color:GreenYellow; font-size: 70px;'>正确! </span>","null","","","","","","","","","","","","","","","","","","","","","","","","","feedback_test","",""
"","","","","","psychophysics","120","477611","0.0-9.0-0.0-0.0-0.0-0.5","777","","j","","","","","","","","","","","","","key","j","4.165566037735877","853.3333333333334","476","j","true","../../test_img/15.png","生人","matching_task","生人","[""<img src=\""../../test_img/15.png\"" width=150 style=\""vertical-align:middle\"">---生人"",""<img src=\""../../test_img/22.png\"" width=150 style=\""vertical-align:middle\"">---自我"",""<img src=\""../../test_img/26.png\"" width=150 style=\""vertical-align:middle\"">---朋友""]","","",""
"","","","","","html-keyboard-response","121","478127","0.0-9.0-0.0-0.0-0.0-1.5","null","<span style='color:GreenYellow; font-size: 70px;'>正确! </span>","null","","","","","","","","","","","","","","","","","","","","","","","","","feedback_test","",""
"","","","","","psychophysics","122","479862","0.0-9.0-0.0-0.0-0.0-0.6","732","","f","","","","","","","","","","","","","key","f","4.166057971014404","853.3333333333334","476","f","true","../../test_img/22.png","生人","matching_task","自我","[""<img src=\""../../test_img/15.png\"" width=150 style=\""vertical-align:middle\"">---生人"",""<img src=\""../../test_img/22.png\"" width=150 style=\""vertical-align:middle\"">---自我"",""<img src=\""../../test_img/26.png\"" width=150 style=\""vertical-align:middle\"">---朋友""]","","",""
"","","","","","html-keyboard-response","123","480363","0.0-9.0-0.0-0.0-0.0-1.6","null","<span style='color:GreenYellow; font-size: 70px;'>正确! </span>","null","","","","","","","","","","","","","","","","","","","","","","","","","feedback_test","",""
"","","","","","psychophysics","124","482007","0.0-9.0-0.0-0.0-0.0-0.7","640","","f","","","","","","","","","","","","","key","f","4.166071428571369","853.3333333333334","476","f","true","../../test_img/26.png","自我","matching_task","朋友","[""<img src=\""../../test_img/15.png\"" width=150 style=\""vertical-align:middle\"">---生人"",""<img src=\""../../test_img/22.png\"" width=150 style=\""vertical-align:middle\"">---自我"",""<img src=\""../../test_img/26.png\"" width=150 style=\""vertical-align:middle\"">---朋友""]","","",""
"","","","","","html-keyboard-response","125","482521","0.0-9.0-0.0-0.0-0.0-1.7","null","<span style='color:GreenYellow; font-size: 70px;'>正确! </span>","null","","","","","","","","","","","","","","","","","","","","","","","","","feedback_test","",""
"","","","","","psychophysics","126","484270","0.0-9.0-0.0-0.0-0.0-0.8","745","","j","","","","","","","","","","","","","key","j","4.166062350119816","853.3333333333334","476","j","true","../../test_img/26.png","朋友","matching_task","朋友","[""<img src=\""../../test_img/15.png\"" width=150 style=\""vertical-align:middle\"">---生人"",""<img src=\""../../test_img/22.png\"" width=150 style=\""vertical-align:middle\"">---自我"",""<img src=\""../../test_img/26.png\"" width=150 style=\""vertical-align:middle\"">---朋友""]","","",""
"","","","","","html-keyboard-response","127","484781","0.0-9.0-0.0-0.0-0.0-1.8","null","<span style='color:GreenYellow; font-size: 70px;'>正确! </span>","null","","","","","","","","","","","","","","","","","","","","","","","","","feedback_test","",""
"","","","","","psychophysics","128","486593","0.0-9.0-0.0-0.0-0.0-0.9","810","","f","","","","","","","","","","","","","key","f","4.166281755196305","853.3333333333334","476","f","true","../../test_img/26.png","生人","matching_task","朋友","[""<img src=\""../../test_img/15.png\"" width=150 style=\""vertical-align:middle\"">---生人"",""<img src=\""../../test_img/22.png\"" width=150 style=\""vertical-align:middle\"">---自我"",""<img src=\""../../test_img/26.png\"" width=150 style=\""vertical-align:middle\"">---朋友""]","","",""
"","","","","","html-keyboard-response","129","487104","0.0-9.0-0.0-0.0-0.0-1.9","null","<span style='color:GreenYellow; font-size: 70px;'>正确! </span>","null","","","","","","","","","","","","","","","","","","","","","","","","","feedback_test","",""
"","","","","","psychophysics","130","488881","0.0-9.0-0.0-0.0-0.0-0.10","773","","j","","","","","","","","","","","","","key","j","4.165679245283069","853.3333333333334","476","j","true","../../test_img/22.png","自我","matching_task","自我","[""<img src=\""../../test_img/15.png\"" width=150 style=\""vertical-align:middle\"">---生人"",""<img src=\""../../test_img/22.png\"" width=150 style=\""vertical-align:middle\"">---自我"",""<img src=\""../../test_img/26.png\"" width=150 style=\""vertical-align:middle\"">---朋友""]","","",""
"","","","","","html-keyboard-response","131","489384","0.0-9.0-0.0-0.0-0.0-1.10","null","<span style='color:GreenYellow; font-size: 70px;'>正确! </span>","null","","","","","","","","","","","","","","","","","","","","","","","","","feedback_test","",""
"","","","","","psychophysics","132","491142","0.0-9.0-0.0-0.0-0.0-0.11","756","","j","","","","","","","","","","","","","key","j","4.165238095238012","853.3333333333334","476","j","true","../../test_img/26.png","朋友","matching_task","朋友","[""<img src=\""../../test_img/15.png\"" width=150 style=\""vertical-align:middle\"">---生人"",""<img src=\""../../test_img/22.png\"" width=150 style=\""vertical-align:middle\"">---自我"",""<img src=\""../../test_img/26.png\"" width=150 style=\""vertical-align:middle\"">---朋友""]","","",""
"","","","","","html-keyboard-response","133","491647","0.0-9.0-0.0-0.0-0.0-1.11","null","<span style='color:GreenYellow; font-size: 70px;'>正确! </span>","null","","","","","","","","","","","","","","","","","","","","","","","","","feedback_test","",""
"","","","","","psychophysics","134","493403","0.0-9.0-0.0-0.0-0.0-0.12","753","","f","","","","","","","","","","","","","key","f","4.165871121718377","853.3333333333334","476","j","false","../../test_img/26.png","朋友","matching_task","朋友","[""<img src=\""../../test_img/15.png\"" width=150 style=\""vertical-align:middle\"">---生人"",""<img src=\""../../test_img/22.png\"" width=150 style=\""vertical-align:middle\"">---自我"",""<img src=\""../../test_img/26.png\"" width=150 style=\""vertical-align:middle\"">---朋友""]","","",""
"","","","","","html-keyboard-response","135","493906","0.0-9.0-0.0-0.0-0.0-1.12","null","<span style='color:red; font-size: 70px;'>错误! </span>","null","","","","","","","","","","","","","","","","","","","","","","","","","feedback_test","",""
"","","","","","psychophysics","136","495822","0.0-9.0-0.0-0.0-0.0-0.13","915","","f","","","","","","","","","","","","","key","f","4.166301969365427","853.3333333333334","476","f","true","../../test_img/15.png","自我","matching_task","生人","[""<img src=\""../../test_img/15.png\"" width=150 style=\""vertical-align:middle\"">---生人"",""<img src=\""../../test_img/22.png\"" width=150 style=\""vertical-align:middle\"">---自我"",""<img src=\""../../test_img/26.png\"" width=150 style=\""vertical-align:middle\"">---朋友""]","","",""
"","","","","","html-keyboard-response","137","496328","0.0-9.0-0.0-0.0-0.0-1.13","null","<span style='color:GreenYellow; font-size: 70px;'>正确! </span>","null","","","","","","","","","","","","","","","","","","","","","","","","","feedback_test","",""
"","","","","","psychophysics","138","498001","0.0-9.0-0.0-0.0-0.0-0.14","670","","j","","","","","","","","","","","","","key","j","4.165664160400945","853.3333333333334","476","j","true","../../test_img/22.png","自我","matching_task","自我","[""<img src=\""../../test_img/15.png\"" width=150 style=\""vertical-align:middle\"">---生人"",""<img src=\""../../test_img/22.png\"" width=150 style=\""vertical-align:middle\"">---自我"",""<img src=\""../../test_img/26.png\"" width=150 style=\""vertical-align:middle\"">---朋友""]","","",""
"","","","","","html-keyboard-response","139","498505","0.0-9.0-0.0-0.0-0.0-1.14","null","<span style='color:GreenYellow; font-size: 70px;'>正确! </span>","null","","","","","","","","","","","","","","","","","","","","","","","","","feedback_test","",""
"","","","","","psychophysics","140","500478","0.0-9.0-0.0-0.0-0.0-0.15","971","","f","","","","","","","","","","","","","key","f","4.1660297239915325","853.3333333333334","476","f","true","../../test_img/22.png","生人","matching_task","自我","[""<img src=\""../../test_img/15.png\"" width=150 style=\""vertical-align:middle\"">---生人"",""<img src=\""../../test_img/22.png\"" width=150 style=\""vertical-align:middle\"">---自我"",""<img src=\""../../test_img/26.png\"" width=150 style=\""vertical-align:middle\"">---朋友""]","","",""
"","","","","","html-keyboard-response","141","500992","0.0-9.0-0.0-0.0-0.0-1.15","null","<span style='color:GreenYellow; font-size: 70px;'>正确! </span>","null","","","","","","","","","","","","","","","","","","","","","","","","","feedback_test","",""
"","","","","","psychophysics","142","502684","0.0-9.0-0.0-0.0-0.0-0.16","690","","f","","","","","","","","","","","","","key","f","4.16600496277907","853.3333333333334","476","f","true","../../test_img/15.png","朋友","matching_task","生人","[""<img src=\""../../test_img/15.png\"" width=150 style=\""vertical-align:middle\"">---生人"",""<img src=\""../../test_img/22.png\"" width=150 style=\""vertical-align:middle\"">---自我"",""<img src=\""../../test_img/26.png\"" width=150 style=\""vertical-align:middle\"">---朋友""]","","",""
"","","","","","html-keyboard-response","143","503195","0.0-9.0-0.0-0.0-0.0-1.16","null","<span style='color:GreenYellow; font-size: 70px;'>正确! </span>","null","","","","","","","","","","","","","","","","","","","","","","","","","feedback_test","",""
"","","","","","psychophysics","144","505087","0.0-9.0-0.0-0.0-0.0-0.17","889","","f","","","","","","","","","","","","","key","f","4.166075388026659","853.3333333333334","476","f","true","../../test_img/26.png","生人","matching_task","朋友","[""<img src=\""../../test_img/15.png\"" width=150 style=\""vertical-align:middle\"">---生人"",""<img src=\""../../test_img/22.png\"" width=150 style=\""vertical-align:middle\"">---自我"",""<img src=\""../../test_img/26.png\"" width=150 style=\""vertical-align:middle\"">---朋友""]","","",""
"","","","","","html-keyboard-response","145","505588","0.0-9.0-0.0-0.0-0.0-1.17","null","<span style='color:GreenYellow; font-size: 70px;'>正确! </span>","null","","","","","","","","","","","","","","","","","","","","","","","","","feedback_test","",""
"","","","","","psychophysics","146","507240","0.0-9.0-0.0-0.0-0.0-0.18","647","","j","","","","","","","","","","","","","key","j","4.166243654822335","853.3333333333334","476","j","true","../../test_img/22.png","自我","matching_task","自我","[""<img src=\""../../test_img/15.png\"" width=150 style=\""vertical-align:middle\"">---生人"",""<img src=\""../../test_img/22.png\"" width=150 style=\""vertical-align:middle\"">---自我"",""<img src=\""../../test_img/26.png\"" width=150 style=\""vertical-align:middle\"">---朋友""]","","",""
"","","","","","html-keyboard-response","147","507747","0.0-9.0-0.0-0.0-0.0-1.18","null","<span style='color:GreenYellow; font-size: 70px;'>正确! </span>","null","","","","","","","","","","","","","","","","","","","","","","","","","feedback_test","",""
"","","","","","psychophysics","148","509373","0.0-9.0-0.0-0.0-0.0-0.19","621","","j","","","","","","","","","","","","","key","j","4.166237113402062","853.3333333333334","476","j","true","../../test_img/15.png","生人","matching_task","生人","[""<img src=\""../../test_img/15.png\"" width=150 style=\""vertical-align:middle\"">---生人"",""<img src=\""../../test_img/22.png\"" width=150 style=\""vertical-align:middle\"">---自我"",""<img src=\""../../test_img/26.png\"" width=150 style=\""vertical-align:middle\"">---朋友""]","","",""
"","","","","","html-keyboard-response","149","509877","0.0-9.0-0.0-0.0-0.0-1.19","null","<span style='color:GreenYellow; font-size: 70px;'>正确! </span>","null","","","","","","","","","","","","","","","","","","","","","","","","","feedback_test","",""
"","","","","","psychophysics","150","511597","0.0-9.0-0.0-0.0-0.0-0.20","717","","f","","","","","","","","","","","","","key","f","4.166180048661772","853.3333333333334","476","f","true","../../test_img/26.png","自我","matching_task","朋友","[""<img src=\""../../test_img/15.png\"" width=150 style=\""vertical-align:middle\"">---生人"",""<img src=\""../../test_img/22.png\"" width=150 style=\""vertical-align:middle\"">---自我"",""<img src=\""../../test_img/26.png\"" width=150 style=\""vertical-align:middle\"">---朋友""]","","",""
"","","","","","html-keyboard-response","151","512098","0.0-9.0-0.0-0.0-0.0-1.20","null","<span style='color:GreenYellow; font-size: 70px;'>正确! </span>","null","","","","","","","","","","","","","","","","","","","","","","","","","feedback_test","",""
"","","","","","psychophysics","152","514381","0.0-9.0-0.0-0.0-0.0-0.21","1280","","j","","","","","","","","","","","","","key","j","4.165776556776602","853.3333333333334","476","j","true","../../test_img/26.png","朋友","matching_task","朋友","[""<img src=\""../../test_img/15.png\"" width=150 style=\""vertical-align:middle\"">---生人"",""<img src=\""../../test_img/22.png\"" width=150 style=\""vertical-align:middle\"">---自我"",""<img src=\""../../test_img/26.png\"" width=150 style=\""vertical-align:middle\"">---朋友""]","","",""
"","","","","","html-keyboard-response","153","514885","0.0-9.0-0.0-0.0-0.0-1.21","null","<span style='color:GreenYellow; font-size: 70px;'>正确! </span>","null","","","","","","","","","","","","","","","","","","","","","","","","","feedback_test","",""
"","","","","","psychophysics","154","516557","0.0-9.0-0.0-0.0-0.0-0.22","669","","j","","","","","","","","","","","","","key","j","4.176165829145732","853.3333333333334","476","j","true","../../test_img/15.png","生人","matching_task","生人","[""<img src=\""../../test_img/15.png\"" width=150 style=\""vertical-align:middle\"">---生人"",""<img src=\""../../test_img/22.png\"" width=150 style=\""vertical-align:middle\"">---自我"",""<img src=\""../../test_img/26.png\"" width=150 style=\""vertical-align:middle\"">---朋友""]","","",""
"","","","","","html-keyboard-response","155","517059","0.0-9.0-0.0-0.0-0.0-1.22","null","<span style='color:GreenYellow; font-size: 70px;'>正确! </span>","null","","","","","","","","","","","","","","","","","","","","","","","","","feedback_test","",""
"","","","","","psychophysics","156","518928","0.0-9.0-0.0-0.0-0.0-0.23","865","","f","","","","","","","","","","","","","key","f","4.1659506726457955","853.3333333333334","476","f","true","../../test_img/22.png","朋友","matching_task","自我","[""<img src=\""../../test_img/15.png\"" width=150 style=\""vertical-align:middle\"">---生人"",""<img src=\""../../test_img/22.png\"" width=150 style=\""vertical-align:middle\"">---自我"",""<img src=\""../../test_img/26.png\"" width=150 style=\""vertical-align:middle\"">---朋友""]","","",""
"","","","","","html-keyboard-response","157","519435","0.0-9.0-0.0-0.0-0.0-1.23","null","<span style='color:GreenYellow; font-size: 70px;'>正确! </span>","null","","","","","","","","","","","","","","","","","","","","","","","","","feedback_test","",""
"","","","","","psychophysics","158","521070","0.0-9.0-0.0-0.0-0.0-0.24","633","","j","","","","","","","","","","","","","key","j","4.163882051282025","853.3333333333334","476","j","true","../../test_img/15.png","生人","matching_task","生人","[""<img src=\""../../test_img/15.png\"" width=150 style=\""vertical-align:middle\"">---生人"",""<img src=\""../../test_img/22.png\"" width=150 style=\""vertical-align:middle\"">---自我"",""<img src=\""../../test_img/26.png\"" width=150 style=\""vertical-align:middle\"">---朋友""]","","",""
"","","","","","html-keyboard-response","159","521574","0.0-9.0-0.0-0.0-0.0-1.24","null","<span style='color:GreenYellow; font-size: 70px;'>正确! </span>","null","","","","","","","","","","","","","","","","","","","","","","","","","feedback_test","",""
"","","","","","psychophysics","160","523345","0.0-9.0-0.0-0.0-0.0-0.25","766","","f","","","","","","","","","","","","","key","f","4.166270783847981","853.3333333333334","476","f","true","../../test_img/22.png","生人","matching_task","自我","[""<img src=\""../../test_img/15.png\"" width=150 style=\""vertical-align:middle\"">---生人"",""<img src=\""../../test_img/22.png\"" width=150 style=\""vertical-align:middle\"">---自我"",""<img src=\""../../test_img/26.png\"" width=150 style=\""vertical-align:middle\"">---朋友""]","","",""
"","","","","","html-keyboard-response","161","523856","0.0-9.0-0.0-0.0-0.0-1.25","null","<span style='color:GreenYellow; font-size: 70px;'>正确! </span>","null","","","","","","","","","","","","","","","","","","","","","","","","","feedback_test","",""
"","","","","","psychophysics","162","525809","0.0-9.0-0.0-0.0-0.0-0.26","948","","f","","","","","","","","","","","","","key","f","4.165982832618022","853.3333333333334","476","f","true","../../test_img/15.png","自我","matching_task","生人","[""<img src=\""../../test_img/15.png\"" width=150 style=\""vertical-align:middle\"">---生人"",""<img src=\""../../test_img/22.png\"" width=150 style=\""vertical-align:middle\"">---自我"",""<img src=\""../../test_img/26.png\"" width=150 style=\""vertical-align:middle\"">---朋友""]","","",""
"","","","","","html-keyboard-response","163","526325","0.0-9.0-0.0-0.0-0.0-1.26","null","<span style='color:GreenYellow; font-size: 70px;'>正确! </span>","null","","","","","","","","","","","","","","","","","","","","","","","","","feedback_test","",""
"","","","","","psychophysics","164","528005","0.0-9.0-0.0-0.0-0.0-0.27","677","","f","","","","","","","","","","","","","key","f","4.16625","853.3333333333334","476","f","true","../../test_img/22.png","朋友","matching_task","自我","[""<img src=\""../../test_img/15.png\"" width=150 style=\""vertical-align:middle\"">---生人"",""<img src=\""../../test_img/22.png\"" width=150 style=\""vertical-align:middle\"">---自我"",""<img src=\""../../test_img/26.png\"" width=150 style=\""vertical-align:middle\"">---朋友""]","","",""
"","","","","","html-keyboard-response","165","528514","0.0-9.0-0.0-0.0-0.0-1.27","null","<span style='color:GreenYellow; font-size: 70px;'>正确! </span>","null","","","","","","","","","","","","","","","","","","","","","","","","","feedback_test","",""
"","","","","","psychophysics","166","530281","0.0-9.0-0.0-0.0-0.0-0.28","765","","f","","","","","","","","","","","","","key","f","4.1661137440757745","853.3333333333334","476","f","true","../../test_img/26.png","自我","matching_task","朋友","[""<img src=\""../../test_img/15.png\"" width=150 style=\""vertical-align:middle\"">---生人"",""<img src=\""../../test_img/22.png\"" width=150 style=\""vertical-align:middle\"">---自我"",""<img src=\""../../test_img/26.png\"" width=150 style=\""vertical-align:middle\"">---朋友""]","","",""
"","","","","","html-keyboard-response","167","530782","0.0-9.0-0.0-0.0-0.0-1.28","null","<span style='color:GreenYellow; font-size: 70px;'>正确! </span>","null","","","","","","","","","","","","","","","","","","","","","","","","","feedback_test","",""
"","","","","","psychophysics","168","532442","0.0-9.0-0.0-0.0-0.0-0.29","656","","f","","","","","","","","","","","","","key","f","4.176455696202709","853.3333333333334","476","f","true","../../test_img/15.png","朋友","matching_task","生人","[""<img src=\""../../test_img/15.png\"" width=150 style=\""vertical-align:middle\"">---生人"",""<img src=\""../../test_img/22.png\"" width=150 style=\""vertical-align:middle\"">---自我"",""<img src=\""../../test_img/26.png\"" width=150 style=\""vertical-align:middle\"">---朋友""]","","",""
"","","","","","html-keyboard-response","169","532944","0.0-9.0-0.0-0.0-0.0-1.29","null","<span style='color:GreenYellow; font-size: 70px;'>正确! </span>","null","","","","","","","","","","","","","","","","","","","","","","","","","feedback_test","",""
"","","","","","psychophysics","170","534662","0.0-9.0-0.0-0.0-0.0-0.30","714","","j","","","","","","","","","","","","","key","j","4.166097560975553","853.3333333333334","476","j","true","../../test_img/26.png","朋友","matching_task","朋友","[""<img src=\""../../test_img/15.png\"" width=150 style=\""vertical-align:middle\"">---生人"",""<img src=\""../../test_img/22.png\"" width=150 style=\""vertical-align:middle\"">---自我"",""<img src=\""../../test_img/26.png\"" width=150 style=\""vertical-align:middle\"">---朋友""]","","",""
"","","","","","html-keyboard-response","171","535166","0.0-9.0-0.0-0.0-0.0-1.30","null","<span style='color:GreenYellow; font-size: 70px;'>正确! </span>","null","","","","","","","","","","","","","","","","","","","","","","","","","feedback_test","",""
"","","","","","psychophysics","172","536940","0.0-9.0-0.0-0.0-0.0-0.31","771","","j","","","","","","","","","","","","","key","j","4.1661137440757745","853.3333333333334","476","j","true","../../test_img/15.png","生人","matching_task","生人","[""<img src=\""../../test_img/15.png\"" width=150 style=\""vertical-align:middle\"">---生人"",""<img src=\""../../test_img/22.png\"" width=150 style=\""vertical-align:middle\"">---自我"",""<img src=\""../../test_img/26.png\"" width=150 style=\""vertical-align:middle\"">---朋友""]","","",""
"","","","","","html-keyboard-response","173","537453","0.0-9.0-0.0-0.0-0.0-1.31","null","<span style='color:GreenYellow; font-size: 70px;'>正确! </span>","null","","","","","","","","","","","","","","","","","","","","","","","","","feedback_test","",""
"","","","","","psychophysics","174","538936","0.0-9.0-0.0-0.0-0.0-0.32","480","","j","","","","","","","","","","","","","key","j","4.166288951841557","853.3333333333334","476","j","true","../../test_img/22.png","自我","matching_task","自我","[""<img src=\""../../test_img/15.png\"" width=150 style=\""vertical-align:middle\"">---生人"",""<img src=\""../../test_img/22.png\"" width=150 style=\""vertical-align:middle\"">---自我"",""<img src=\""../../test_img/26.png\"" width=150 style=\""vertical-align:middle\"">---朋友""]","","",""
"","","","","","html-keyboard-response","175","539439","0.0-9.0-0.0-0.0-0.0-1.32","null","<span style='color:GreenYellow; font-size: 70px;'>正确! </span>","null","","","","","","","","","","","","","","","","","","","","","","","","","feedback_test","",""
"","","","","","psychophysics","176","541241","0.0-9.0-0.0-0.0-0.0-0.33","798","","j","","","","","","","","","","","","","key","j","4.16604651162769","853.3333333333334","476","j","true","../../test_img/26.png","朋友","matching_task","朋友","[""<img src=\""../../test_img/15.png\"" width=150 style=\""vertical-align:middle\"">---生人"",""<img src=\""../../test_img/22.png\"" width=150 style=\""vertical-align:middle\"">---自我"",""<img src=\""../../test_img/26.png\"" width=150 style=\""vertical-align:middle\"">---朋友""]","","",""
"","","","","","html-keyboard-response","177","541754","0.0-9.0-0.0-0.0-0.0-1.33","null","<span style='color:GreenYellow; font-size: 70px;'>正确! </span>","null","","","","","","","","","","","","","","","","","","","","","","","","","feedback_test","",""
"","","","","","psychophysics","178","543334","0.0-9.0-0.0-0.0-0.0-0.34","579","","j","","","","","","","","","","","","","key","j","4.165957446808573","853.3333333333334","476","j","true","../../test_img/22.png","自我","matching_task","自我","[""<img src=\""../../test_img/15.png\"" width=150 style=\""vertical-align:middle\"">---生人"",""<img src=\""../../test_img/22.png\"" width=150 style=\""vertical-align:middle\"">---自我"",""<img src=\""../../test_img/26.png\"" width=150 style=\""vertical-align:middle\"">---朋友""]","","",""
"","","","","","html-keyboard-response","179","543849","0.0-9.0-0.0-0.0-0.0-1.34","null","<span style='color:GreenYellow; font-size: 70px;'>正确! </span>","null","","","","","","","","","","","","","","","","","","","","","","","","","feedback_test","",""
"","","","","","psychophysics","180","545490","0.0-9.0-0.0-0.0-0.0-0.35","639","","f","","","","","","","","","","","","","key","f","4.166240409207161","853.3333333333334","476","f","true","../../test_img/26.png","生人","matching_task","朋友","[""<img src=\""../../test_img/15.png\"" width=150 style=\""vertical-align:middle\"">---生人"",""<img src=\""../../test_img/22.png\"" width=150 style=\""vertical-align:middle\"">---自我"",""<img src=\""../../test_img/26.png\"" width=150 style=\""vertical-align:middle\"">---朋友""]","","",""
"","","","","","html-keyboard-response","181","545993","0.0-9.0-0.0-0.0-0.0-1.35","null","<span style='color:GreenYellow; font-size: 70px;'>正确! </span>","null","","","","","","","","","","","","","","","","","","","","","","","","","feedback_test","",""
"","","","","","psychophysics","182","547733","0.0-9.0-0.0-0.0-0.0-0.36","737","","f","","","","","","","","","","","","","key","f","4.165942028985395","853.3333333333334","476","f","true","../../test_img/22.png","生人","matching_task","自我","[""<img src=\""../../test_img/15.png\"" width=150 style=\""vertical-align:middle\"">---生人"",""<img src=\""../../test_img/22.png\"" width=150 style=\""vertical-align:middle\"">---自我"",""<img src=\""../../test_img/26.png\"" width=150 style=\""vertical-align:middle\"">---朋友""]","","",""
"","","","","","html-keyboard-response","183","548248","0.0-9.0-0.0-0.0-0.0-1.36","null","<span style='color:GreenYellow; font-size: 70px;'>正确! </span>","null","","","","","","","","","","","","","","","","","","","","","","","","","feedback_test","",""
"","","","","","psychophysics","184","549969","0.0-9.0-0.0-0.0-0.0-0.37","719","","f","","","","","","","","","","","","","key","f","4.1658536585365855","853.3333333333334","476","f","true","../../test_img/22.png","朋友","matching_task","自我","[""<img src=\""../../test_img/15.png\"" width=150 style=\""vertical-align:middle\"">---生人"",""<img src=\""../../test_img/22.png\"" width=150 style=\""vertical-align:middle\"">---自我"",""<img src=\""../../test_img/26.png\"" width=150 style=\""vertical-align:middle\"">---朋友""]","","",""
"","","","","","html-keyboard-response","185","550471","0.0-9.0-0.0-0.0-0.0-1.37","null","<span style='color:GreenYellow; font-size: 70px;'>正确! </span>","null","","","","","","","","","","","","","","","","","","","","","","","","","feedback_test","",""
"","","","","","psychophysics","186","552104","0.0-9.0-0.0-0.0-0.0-0.38","629","","j","","","","","","","","","","","","","key","j","4.166410256410316","853.3333333333334","476","j","true","../../test_img/15.png","生人","matching_task","生人","[""<img src=\""../../test_img/15.png\"" width=150 style=\""vertical-align:middle\"">---生人"",""<img src=\""../../test_img/22.png\"" width=150 style=\""vertical-align:middle\"">---自我"",""<img src=\""../../test_img/26.png\"" width=150 style=\""vertical-align:middle\"">---朋友""]","","",""
"","","","","","html-keyboard-response","187","552613","0.0-9.0-0.0-0.0-0.0-1.38","null","<span style='color:GreenYellow; font-size: 70px;'>正确! </span>","null","","","","","","","","","","","","","","","","","","","","","","","","","feedback_test","",""
"","","","","","psychophysics","188","554227","0.0-9.0-0.0-0.0-0.0-0.39","610","","j","","","","","","","","","","","","","key","j","4.1657506493506835","853.3333333333334","476","f","false","../../test_img/15.png","自我","matching_task","生人","[""<img src=\""../../test_img/15.png\"" width=150 style=\""vertical-align:middle\"">---生人"",""<img src=\""../../test_img/22.png\"" width=150 style=\""vertical-align:middle\"">---自我"",""<img src=\""../../test_img/26.png\"" width=150 style=\""vertical-align:middle\"">---朋友""]","","",""
"","","","","","html-keyboard-response","189","554728","0.0-9.0-0.0-0.0-0.0-1.39","null","<span style='color:red; font-size: 70px;'>错误! </span>","null","","","","","","","","","","","","","","","","","","","","","","","","","feedback_test","",""
"","","","","","psychophysics","190","556403","0.0-9.0-0.0-0.0-0.0-0.40","670","","f","","","","","","","","","","","","","key","f","4.165914786967302","853.3333333333334","476","f","true","../../test_img/26.png","自我","matching_task","朋友","[""<img src=\""../../test_img/15.png\"" width=150 style=\""vertical-align:middle\"">---生人"",""<img src=\""../../test_img/22.png\"" width=150 style=\""vertical-align:middle\"">---自我"",""<img src=\""../../test_img/26.png\"" width=150 style=\""vertical-align:middle\"">---朋友""]","","",""
"","","","","","html-keyboard-response","191","556917","0.0-9.0-0.0-0.0-0.0-1.40","null","<span style='color:GreenYellow; font-size: 70px;'>正确! </span>","null","","","","","","","","","","","","","","","","","","","","","","","","","feedback_test","",""
"","","","","","psychophysics","192","558487","0.0-9.0-0.0-0.0-0.0-0.41","568","","j","","","","","","","","","","","","","key","j","4.1664000000000625","853.3333333333334","476","j","true","../../test_img/22.png","自我","matching_task","自我","[""<img src=\""../../test_img/15.png\"" width=150 style=\""vertical-align:middle\"">---生人"",""<img src=\""../../test_img/22.png\"" width=150 style=\""vertical-align:middle\"">---自我"",""<img src=\""../../test_img/26.png\"" width=150 style=\""vertical-align:middle\"">---朋友""]","","",""
"","","","","","html-keyboard-response","193","559000","0.0-9.0-0.0-0.0-0.0-1.41","null","<span style='color:GreenYellow; font-size: 70px;'>正确! </span>","null","","","","","","","","","","","","","","","","","","","","","","","","","feedback_test","",""
"","","","","","psychophysics","194","560624","0.0-9.0-0.0-0.0-0.0-0.42","621","","f","","","","","","","","","","","","","key","f","4.166408268733609","853.3333333333334","476","f","true","../../test_img/26.png","生人","matching_task","朋友","[""<img src=\""../../test_img/15.png\"" width=150 style=\""vertical-align:middle\"">---生人"",""<img src=\""../../test_img/22.png\"" width=150 style=\""vertical-align:middle\"">---自我"",""<img src=\""../../test_img/26.png\"" width=150 style=\""vertical-align:middle\"">---朋友""]","","",""
"","","","","","html-keyboard-response","195","561126","0.0-9.0-0.0-0.0-0.0-1.42","null","<span style='color:GreenYellow; font-size: 70px;'>正确! </span>","null","","","","","","","","","","","","","","","","","","","","","","","","","feedback_test","",""
"","","","","","psychophysics","196","562909","0.0-9.0-0.0-0.0-0.0-0.43","781","","j","","","","","","","","","","","","","key","j","4.165882352941177","853.3333333333334","476","j","true","../../test_img/26.png","朋友","matching_task","朋友","[""<img src=\""../../test_img/15.png\"" width=150 style=\""vertical-align:middle\"">---生人"",""<img src=\""../../test_img/22.png\"" width=150 style=\""vertical-align:middle\"">---自我"",""<img src=\""../../test_img/26.png\"" width=150 style=\""vertical-align:middle\"">---朋友""]","","",""
"","","","","","html-keyboard-response","197","563424","0.0-9.0-0.0-0.0-0.0-1.43","null","<span style='color:GreenYellow; font-size: 70px;'>正确! </span>","null","","","","","","","","","","","","","","","","","","","","","","","","","feedback_test","",""
"","","","","","psychophysics","198","564939","0.0-9.0-0.0-0.0-0.0-0.44","511","","j","","","","","","","","","","","","","key","j","4.165506925207816","853.3333333333334","476","j","true","../../test_img/15.png","生人","matching_task","生人","[""<img src=\""../../test_img/15.png\"" width=150 style=\""vertical-align:middle\"">---生人"",""<img src=\""../../test_img/22.png\"" width=150 style=\""vertical-align:middle\"">---自我"",""<img src=\""../../test_img/26.png\"" width=150 style=\""vertical-align:middle\"">---朋友""]","","",""
"","","","","","html-keyboard-response","199","565446","0.0-9.0-0.0-0.0-0.0-1.44","null","<span style='color:GreenYellow; font-size: 70px;'>正确! </span>","null","","","","","","","","","","","","","","","","","","","","","","","","","feedback_test","",""
"","","","","","psychophysics","200","567366","0.0-9.0-0.0-0.0-0.0-0.45","918","","j","","","","","","","","","","","","","key","j","4.1653899782134856","853.3333333333334","476","j","true","../../test_img/26.png","朋友","matching_task","朋友","[""<img src=\""../../test_img/15.png\"" width=150 style=\""vertical-align:middle\"">---生人"",""<img src=\""../../test_img/22.png\"" width=150 style=\""vertical-align:middle\"">---自我"",""<img src=\""../../test_img/26.png\"" width=150 style=\""vertical-align:middle\"">---朋友""]","","",""
"","","","","","html-keyboard-response","201","567879","0.0-9.0-0.0-0.0-0.0-1.45","null","<span style='color:GreenYellow; font-size: 70px;'>正确! </span>","null","","","","","","","","","","","","","","","","","","","","","","","","","feedback_test","",""
"","","","","","psychophysics","202","569495","0.0-9.0-0.0-0.0-0.0-0.46","614","","j","","","","","","","","","","","","","key","j","4.166493506493446","853.3333333333334","476","j","true","../../test_img/22.png","自我","matching_task","自我","[""<img src=\""../../test_img/15.png\"" width=150 style=\""vertical-align:middle\"">---生人"",""<img src=\""../../test_img/22.png\"" width=150 style=\""vertical-align:middle\"">---自我"",""<img src=\""../../test_img/26.png\"" width=150 style=\""vertical-align:middle\"">---朋友""]","","",""
"","","","","","html-keyboard-response","203","570005","0.0-9.0-0.0-0.0-0.0-1.46","null","<span style='color:GreenYellow; font-size: 70px;'>正确! </span>","null","","","","","","","","","","","","","","","","","","","","","","","","","feedback_test","",""
"","","","","","psychophysics","204","571737","0.0-9.0-0.0-0.0-0.0-0.47","727","","j","","","","","","","","","","","","","key","j","4.16610169491548","853.3333333333334","476","f","false","../../test_img/15.png","朋友","matching_task","生人","[""<img src=\""../../test_img/15.png\"" width=150 style=\""vertical-align:middle\"">---生人"",""<img src=\""../../test_img/22.png\"" width=150 style=\""vertical-align:middle\"">---自我"",""<img src=\""../../test_img/26.png\"" width=150 style=\""vertical-align:middle\"">---朋友""]","","",""
"","","","","","html-keyboard-response","205","572241","0.0-9.0-0.0-0.0-0.0-1.47","null","<span style='color:red; font-size: 70px;'>错误! </span>","null","","","","","","","","","","","","","","","","","","","","","","","","","feedback_test","",""
"","","","","","psychophysics","206","573874","0.0-9.0-0.0-0.0-0.0-0.48","632","","j","","","","","","","","","","","","","key","j","4.166066838046213","853.3333333333334","476","j","true","../../test_img/22.png","自我","matching_task","自我","[""<img src=\""../../test_img/15.png\"" width=150 style=\""vertical-align:middle\"">---生人"",""<img src=\""../../test_img/22.png\"" width=150 style=\""vertical-align:middle\"">---自我"",""<img src=\""../../test_img/26.png\"" width=150 style=\""vertical-align:middle\"">---朋友""]","","",""
"","","","","","html-keyboard-response","207","574378","0.0-9.0-0.0-0.0-0.0-1.48","null","<span style='color:GreenYellow; font-size: 70px;'>正确! </span>","null","","","","","","","","","","","","","","","","","","","","","","","","","feedback_test","",""
"","","","","","psychophysics","208","576031","0.0-9.0-0.0-0.0-0.0-0.49","651","","f","","","","","","","","","","","","","key","f","4.166497461928875","853.3333333333334","476","f","true","../../test_img/26.png","生人","matching_task","朋友","[""<img src=\""../../test_img/15.png\"" width=150 style=\""vertical-align:middle\"">---生人"",""<img src=\""../../test_img/22.png\"" width=150 style=\""vertical-align:middle\"">---自我"",""<img src=\""../../test_img/26.png\"" width=150 style=\""vertical-align:middle\"">---朋友""]","","",""
"","","","","","html-keyboard-response","209","576538","0.0-9.0-0.0-0.0-0.0-1.49","null","<span style='color:GreenYellow; font-size: 70px;'>正确! </span>","null","","","","","","","","","","","","","","","","","","","","","","","","","feedback_test","",""
"","","","","","psychophysics","210","578445","0.0-9.0-0.0-0.0-0.0-0.50","903","","j","","","","","","","","","","","","","key","j","4.165525274725048","853.3333333333334","476","j","true","../../test_img/26.png","朋友","matching_task","朋友","[""<img src=\""../../test_img/15.png\"" width=150 style=\""vertical-align:middle\"">---生人"",""<img src=\""../../test_img/22.png\"" width=150 style=\""vertical-align:middle\"">---自我"",""<img src=\""../../test_img/26.png\"" width=150 style=\""vertical-align:middle\"">---朋友""]","","",""
"","","","","","html-keyboard-response","211","578958","0.0-9.0-0.0-0.0-0.0-1.50","null","<span style='color:GreenYellow; font-size: 70px;'>正确! </span>","null","","","","","","","","","","","","","","","","","","","","","","","","","feedback_test","",""
"","","","","","psychophysics","212","580827","0.0-9.0-0.0-0.0-0.0-0.51","864","","f","","","","","","","","","","","","","key","f","4.165842696629318","853.3333333333334","476","f","true","../../test_img/15.png","自我","matching_task","生人","[""<img src=\""../../test_img/15.png\"" width=150 style=\""vertical-align:middle\"">---生人"",""<img src=\""../../test_img/22.png\"" width=150 style=\""vertical-align:middle\"">---自我"",""<img src=\""../../test_img/26.png\"" width=150 style=\""vertical-align:middle\"">---朋友""]","","",""
"","","","","","html-keyboard-response","213","581340","0.0-9.0-0.0-0.0-0.0-1.51","null","<span style='color:GreenYellow; font-size: 70px;'>正确! </span>","null","","","","","","","","","","","","","","","","","","","","","","","","","feedback_test","",""
"","","","","","psychophysics","214","583087","0.0-9.0-0.0-0.0-0.0-0.52","745","","j","","","","","","","","","","","","","key","j","4.166105769230713","853.3333333333334","476","j","true","../../test_img/15.png","生人","matching_task","生人","[""<img src=\""../../test_img/15.png\"" width=150 style=\""vertical-align:middle\"">---生人"",""<img src=\""../../test_img/22.png\"" width=150 style=\""vertical-align:middle\"">---自我"",""<img src=\""../../test_img/26.png\"" width=150 style=\""vertical-align:middle\"">---朋友""]","","",""
"","","","","","html-keyboard-response","215","583600","0.0-9.0-0.0-0.0-0.0-1.52","null","<span style='color:GreenYellow; font-size: 70px;'>正确! </span>","null","","","","","","","","","","","","","","","","","","","","","","","","","feedback_test","",""
"","","","","","psychophysics","216","585246","0.0-9.0-0.0-0.0-0.0-0.53","642","","f","","","","","","","","","","","","","key","f","4.166412213740517","853.3333333333334","476","f","true","../../test_img/26.png","自我","matching_task","朋友","[""<img src=\""../../test_img/15.png\"" width=150 style=\""vertical-align:middle\"">---生人"",""<img src=\""../../test_img/22.png\"" width=150 style=\""vertical-align:middle\"">---自我"",""<img src=\""../../test_img/26.png\"" width=150 style=\""vertical-align:middle\"">---朋友""]","","",""
"","","","","","html-keyboard-response","217","585748","0.0-9.0-0.0-0.0-0.0-1.53","null","<span style='color:GreenYellow; font-size: 70px;'>正确! </span>","null","","","","","","","","","","","","","","","","","","","","","","","","","feedback_test","",""
"","","","","","psychophysics","218","587556","0.0-9.0-0.0-0.0-0.0-0.54","806","","j","","","","","","","","","","","","","key","j","4.166125290023148","853.3333333333334","476","j","true","../../test_img/26.png","朋友","matching_task","朋友","[""<img src=\""../../test_img/15.png\"" width=150 style=\""vertical-align:middle\"">---生人"",""<img src=\""../../test_img/22.png\"" width=150 style=\""vertical-align:middle\"">---自我"",""<img src=\""../../test_img/26.png\"" width=150 style=\""vertical-align:middle\"">---朋友""]","","",""
"","","","","","html-keyboard-response","219","588064","0.0-9.0-0.0-0.0-0.0-1.54","null","<span style='color:GreenYellow; font-size: 70px;'>正确! </span>","null","","","","","","","","","","","","","","","","","","","","","","","","","feedback_test","",""
"","","","","","psychophysics","220","589961","0.0-9.0-0.0-0.0-0.0-0.55","895","","f","","","","","","","","","","","","","key","f","4.165707964601822","853.3333333333334","476","f","true","../../test_img/22.png","生人","matching_task","自我","[""<img src=\""../../test_img/15.png\"" width=150 style=\""vertical-align:middle\"">---生人"",""<img src=\""../../test_img/22.png\"" width=150 style=\""vertical-align:middle\"">---自我"",""<img src=\""../../test_img/26.png\"" width=150 style=\""vertical-align:middle\"">---朋友""]","","",""
"","","","","","html-keyboard-response","221","590466","0.0-9.0-0.0-0.0-0.0-1.55","null","<span style='color:GreenYellow; font-size: 70px;'>正确! </span>","null","","","","","","","","","","","","","","","","","","","","","","","","","feedback_test","",""
"","","","","","psychophysics","222","592233","0.0-9.0-0.0-0.0-0.0-0.56","764","","f","","","","","","","","","","","","","key","f","4.165876777251185","853.3333333333334","476","f","true","../../test_img/15.png","朋友","matching_task","生人","[""<img src=\""../../test_img/15.png\"" width=150 style=\""vertical-align:middle\"">---生人"",""<img src=\""../../test_img/22.png\"" width=150 style=\""vertical-align:middle\"">---自我"",""<img src=\""../../test_img/26.png\"" width=150 style=\""vertical-align:middle\"">---朋友""]","","",""
"","","","","","html-keyboard-response","223","592735","0.0-9.0-0.0-0.0-0.0-1.56","null","<span style='color:GreenYellow; font-size: 70px;'>正确! </span>","null","","","","","","","","","","","","","","","","","","","","","","","","","feedback_test","",""
"","","","","","psychophysics","224","594566","0.0-9.0-0.0-0.0-0.0-0.57","830","","f","","","","","","","","","","","","","key","f","4.166132723112075","853.3333333333334","476","f","true","../../test_img/22.png","朋友","matching_task","自我","[""<img src=\""../../test_img/15.png\"" width=150 style=\""vertical-align:middle\"">---生人"",""<img src=\""../../test_img/22.png\"" width=150 style=\""vertical-align:middle\"">---自我"",""<img src=\""../../test_img/26.png\"" width=150 style=\""vertical-align:middle\"">---朋友""]","","",""
"","","","","","html-keyboard-response","225","595076","0.0-9.0-0.0-0.0-0.0-1.57","null","<span style='color:GreenYellow; font-size: 70px;'>正确! </span>","null","","","","","","","","","","","","","","","","","","","","","","","","","feedback_test","",""
"","","","","","psychophysics","226","596899","0.0-9.0-0.0-0.0-0.0-0.58","821","","j","","","","","","","","","","","","","key","j","4.165549425287547","853.3333333333334","476","j","true","../../test_img/15.png","生人","matching_task","生人","[""<img src=\""../../test_img/15.png\"" width=150 style=\""vertical-align:middle\"">---生人"",""<img src=\""../../test_img/22.png\"" width=150 style=\""vertical-align:middle\"">---自我"",""<img src=\""../../test_img/26.png\"" width=150 style=\""vertical-align:middle\"">---朋友""]","","",""
"","","","","","html-keyboard-response","227","597404","0.0-9.0-0.0-0.0-0.0-1.58","null","<span style='color:GreenYellow; font-size: 70px;'>正确! </span>","null","","","","","","","","","","","","","","","","","","","","","","","","","feedback_test","",""
"","","","","","psychophysics","228","599061","0.0-9.0-0.0-0.0-0.0-0.59","655","","j","","","","","","","","","","","","","key","j","4.165909090908973","853.3333333333334","476","j","true","../../test_img/22.png","自我","matching_task","自我","[""<img src=\""../../test_img/15.png\"" width=150 style=\""vertical-align:middle\"">---生人"",""<img src=\""../../test_img/22.png\"" width=150 style=\""vertical-align:middle\"">---自我"",""<img src=\""../../test_img/26.png\"" width=150 style=\""vertical-align:middle\"">---朋友""]","","",""
"","","","","","html-keyboard-response","229","599575","0.0-9.0-0.0-0.0-0.0-1.59","null","<span style='color:GreenYellow; font-size: 70px;'>正确! </span>","null","","","","","","","","","","","","","","","","","","","","","","","","","feedback_test","",""
"","","","","","psychophysics","230","601267","0.0-9.0-0.0-0.0-0.0-0.60","690","","j","","","","","","","","","","","","","key","j","4.166124069478846","853.3333333333334","476","j","true","../../test_img/15.png","生人","matching_task","生人","[""<img src=\""../../test_img/15.png\"" width=150 style=\""vertical-align:middle\"">---生人"",""<img src=\""../../test_img/22.png\"" width=150 style=\""vertical-align:middle\"">---自我"",""<img src=\""../../test_img/26.png\"" width=150 style=\""vertical-align:middle\"">---朋友""]","","",""
"","","","","","html-keyboard-response","231","601777","0.0-9.0-0.0-0.0-0.0-1.60","null","<span style='color:GreenYellow; font-size: 70px;'>正确! </span>","null","","","","","","","","","","","","","","","","","","","","","","","","","feedback_test","",""
"","","","","","psychophysics","232","603377","0.0-9.0-0.0-0.0-0.0-0.61","596","","f","","","","","","","","","","","","","key","f","4.165091863517121","853.3333333333334","476","j","false","../../test_img/26.png","朋友","matching_task","朋友","[""<img src=\""../../test_img/15.png\"" width=150 style=\""vertical-align:middle\"">---生人"",""<img src=\""../../test_img/22.png\"" width=150 style=\""vertical-align:middle\"">---自我"",""<img src=\""../../test_img/26.png\"" width=150 style=\""vertical-align:middle\"">---朋友""]","","",""
"","","","","","html-keyboard-response","233","603889","0.0-9.0-0.0-0.0-0.0-1.61","null","<span style='color:red; font-size: 70px;'>错误! </span>","null","","","","","","","","","","","","","","","","","","","","","","","","","feedback_test","",""
"","","","","","psychophysics","234","605612","0.0-9.0-0.0-0.0-0.0-0.62","719","","j","","","","","","","","","","","","","key","j","4.165810218977928","853.3333333333334","476","j","true","../../test_img/15.png","生人","matching_task","生人","[""<img src=\""../../test_img/15.png\"" width=150 style=\""vertical-align:middle\"">---生人"",""<img src=\""../../test_img/22.png\"" width=150 style=\""vertical-align:middle\"">---自我"",""<img src=\""../../test_img/26.png\"" width=150 style=\""vertical-align:middle\"">---朋友""]","","",""
"","","","","","html-keyboard-response","235","606126","0.0-9.0-0.0-0.0-0.0-1.62","null","<span style='color:GreenYellow; font-size: 70px;'>正确! </span>","null","","","","","","","","","","","","","","","","","","","","","","","","","feedback_test","",""
"","","","","","psychophysics","236","607716","0.0-9.0-0.0-0.0-0.0-0.63","586","","j","","","","","","","","","","","","","key","j","4.165825857519784","853.3333333333334","476","j","true","../../test_img/22.png","自我","matching_task","自我","[""<img src=\""../../test_img/15.png\"" width=150 style=\""vertical-align:middle\"">---生人"",""<img src=\""../../test_img/22.png\"" width=150 style=\""vertical-align:middle\"">---自我"",""<img src=\""../../test_img/26.png\"" width=150 style=\""vertical-align:middle\"">---朋友""]","","",""
"","","","","","html-keyboard-response","237","608222","0.0-9.0-0.0-0.0-0.0-1.63","null","<span style='color:GreenYellow; font-size: 70px;'>正确! </span>","null","","","","","","","","","","","","","","","","","","","","","","","","","feedback_test","",""
"","","","","","psychophysics","238","609743","0.0-9.0-0.0-0.0-0.0-0.64","517","","j","","","","","","","","","","","","","key","j","4.165840220385867","853.3333333333334","476","f","false","../../test_img/15.png","朋友","matching_task","生人","[""<img src=\""../../test_img/15.png\"" width=150 style=\""vertical-align:middle\"">---生人"",""<img src=\""../../test_img/22.png\"" width=150 style=\""vertical-align:middle\"">---自我"",""<img src=\""../../test_img/26.png\"" width=150 style=\""vertical-align:middle\"">---朋友""]","","",""
"","","","","","html-keyboard-response","239","610258","0.0-9.0-0.0-0.0-0.0-1.64","null","<span style='color:red; font-size: 70px;'>错误! </span>","null","","","","","","","","","","","","","","","","","","","","","","","","","feedback_test","",""
"","","","","","psychophysics","240","612125","0.0-9.0-0.0-0.0-0.0-0.65","862","","f","","","","","","","","","","","","","key","f","4.166216216216321","853.3333333333334","476","f","true","../../test_img/22.png","朋友","matching_task","自我","[""<img src=\""../../test_img/15.png\"" width=150 style=\""vertical-align:middle\"">---生人"",""<img src=\""../../test_img/22.png\"" width=150 style=\""vertical-align:middle\"">---自我"",""<img src=\""../../test_img/26.png\"" width=150 style=\""vertical-align:middle\"">---朋友""]","","",""
"","","","","","html-keyboard-response","241","612629","0.0-9.0-0.0-0.0-0.0-1.65","null","<span style='color:GreenYellow; font-size: 70px;'>正确! </span>","null","","","","","","","","","","","","","","","","","","","","","","","","","feedback_test","",""
"","","","","","psychophysics","242","614259","0.0-9.0-0.0-0.0-0.0-0.66","626","","j","","","","","","","","","","","","","key","j","4.16584575835467","853.3333333333334","476","j","true","../../test_img/22.png","自我","matching_task","自我","[""<img src=\""../../test_img/15.png\"" width=150 style=\""vertical-align:middle\"">---生人"",""<img src=\""../../test_img/22.png\"" width=150 style=\""vertical-align:middle\"">---自我"",""<img src=\""../../test_img/26.png\"" width=150 style=\""vertical-align:middle\"">---朋友""]","","",""
"","","","","","html-keyboard-response","243","614771","0.0-9.0-0.0-0.0-0.0-1.66","null","<span style='color:GreenYellow; font-size: 70px;'>正确! </span>","null","","","","","","","","","","","","","","","","","","","","","","","","","feedback_test","",""
"","","","","","psychophysics","244","616466","0.0-9.0-0.0-0.0-0.0-0.67","691","","f","","","","","","","","","","","","","key","f","4.166089108910834","853.3333333333334","476","f","true","../../test_img/15.png","自我","matching_task","生人","[""<img src=\""../../test_img/15.png\"" width=150 style=\""vertical-align:middle\"">---生人"",""<img src=\""../../test_img/22.png\"" width=150 style=\""vertical-align:middle\"">---自我"",""<img src=\""../../test_img/26.png\"" width=150 style=\""vertical-align:middle\"">---朋友""]","","",""
"","","","","","html-keyboard-response","245","616982","0.0-9.0-0.0-0.0-0.0-1.67","null","<span style='color:GreenYellow; font-size: 70px;'>正确! </span>","null","","","","","","","","","","","","","","","","","","","","","","","","","feedback_test","",""
"","","","","","psychophysics","246","618798","0.0-9.0-0.0-0.0-0.0-0.68","814","","j","","","","","","","","","","","","","key","j","4.166512702078468","853.3333333333334","476","j","true","../../test_img/26.png","朋友","matching_task","朋友","[""<img src=\""../../test_img/15.png\"" width=150 style=\""vertical-align:middle\"">---生人"",""<img src=\""../../test_img/22.png\"" width=150 style=\""vertical-align:middle\"">---自我"",""<img src=\""../../test_img/26.png\"" width=150 style=\""vertical-align:middle\"">---朋友""]","","",""
"","","","","","html-keyboard-response","247","619310","0.0-9.0-0.0-0.0-0.0-1.68","null","<span style='color:GreenYellow; font-size: 70px;'>正确! </span>","null","","","","","","","","","","","","","","","","","","","","","","","","","feedback_test","",""
"","","","","","psychophysics","248","621175","0.0-9.0-0.0-0.0-0.0-0.69","863","","f","","","","","","","","","","","","","key","f","4.165842696629056","853.3333333333334","476","f","true","../../test_img/26.png","自我","matching_task","朋友","[""<img src=\""../../test_img/15.png\"" width=150 style=\""vertical-align:middle\"">---生人"",""<img src=\""../../test_img/22.png\"" width=150 style=\""vertical-align:middle\"">---自我"",""<img src=\""../../test_img/26.png\"" width=150 style=\""vertical-align:middle\"">---朋友""]","","",""
"","","","","","html-keyboard-response","249","621685","0.0-9.0-0.0-0.0-0.0-1.69","null","<span style='color:GreenYellow; font-size: 70px;'>正确! </span>","null","","","","","","","","","","","","","","","","","","","","","","","","","feedback_test","",""
"","","","","","psychophysics","250","623776","0.0-9.0-0.0-0.0-0.0-0.70","1089","","f","","","","","","","","","","","","","key","f","4.165931863727549","853.3333333333334","476","f","true","../../test_img/26.png","生人","matching_task","朋友","[""<img src=\""../../test_img/15.png\"" width=150 style=\""vertical-align:middle\"">---生人"",""<img src=\""../../test_img/22.png\"" width=150 style=\""vertical-align:middle\"">---自我"",""<img src=\""../../test_img/26.png\"" width=150 style=\""vertical-align:middle\"">---朋友""]","","",""
"","","","","","html-keyboard-response","251","624291","0.0-9.0-0.0-0.0-0.0-1.70","null","<span style='color:GreenYellow; font-size: 70px;'>正确! </span>","null","","","","","","","","","","","","","","","","","","","","","","","","","feedback_test","",""
"","","","","","psychophysics","252","626157","0.0-9.0-0.0-0.0-0.0-0.71","862","","f","","","","","","","","","","","","","key","f","4.166216216216321","853.3333333333334","476","f","true","../../test_img/22.png","生人","matching_task","自我","[""<img src=\""../../test_img/15.png\"" width=150 style=\""vertical-align:middle\"">---生人"",""<img src=\""../../test_img/22.png\"" width=150 style=\""vertical-align:middle\"">---自我"",""<img src=\""../../test_img/26.png\"" width=150 style=\""vertical-align:middle\"">---朋友""]","","",""
"","","","","","html-keyboard-response","253","626667","0.0-9.0-0.0-0.0-0.0-1.71","null","<span style='color:GreenYellow; font-size: 70px;'>正确! </span>","null","","","","","","","","","","","","","","","","","","","","","","","","","feedback_test","",""
"","","","","","html-keyboard-response","254","632046","0.0-9.0-0.0-0.0-1.0","5378","<style>.context{color:white; font-size: 35px; line-height:40px}</style>                          <div><p class='context'>您正确回答了93% 的试次。</p><p class='context'>您的平均反应时为766毫秒。</p><p class='context'>请按任意键进入休息</p></div>"," ","","","","","","","","","","","","","","","","","","","","","","","","","","",""
"","","","","","html-button-response","255","663413","0.0-9.0-0.0-0.0-2.0","31365","
                    <p>知觉匹配任务中，您还剩余4组实验</p>
                    <p>现在是休息时间，当您结束休息后，您可以点击 结束休息 按钮 继续</p>
                    <p>建议休息时间还剩余<span id=""iii"">60</span>秒</p>","0","","","","","","","","","","","","","","","","","","","","","","","","","","",""
"","","","","","psychophysics","256","665320","0.0-9.0-0.0-0.0-0.1-0.72","905","","f","","","","","","","","","","","","","key","f","4.166519823788751","853.3333333333334","476","f","true","../../test_img/22.png","朋友","matching_task","自我","[""<img src=\""../../test_img/15.png\"" width=150 style=\""vertical-align:middle\"">---生人"",""<img src=\""../../test_img/22.png\"" width=150 style=\""vertical-align:middle\"">---自我"",""<img src=\""../../test_img/26.png\"" width=150 style=\""vertical-align:middle\"">---朋友""]","","",""
"","","","","","html-keyboard-response","257","665822","0.0-9.0-0.0-0.0-0.1-1.72","null","<span style='color:GreenYellow; font-size: 70px;'>正确! </span>","null","","","","","","","","","","","","","","","","","","","","","","","","","feedback_test","",""
"","","","","","psychophysics","258","667570","0.0-9.0-0.0-0.0-0.1-0.73","743","","f","","","","","","","","","","","","","key","f","4.166426858513245","853.3333333333334","476","f","true","../../test_img/15.png","自我","matching_task","生人","[""<img src=\""../../test_img/15.png\"" width=150 style=\""vertical-align:middle\"">---生人"",""<img src=\""../../test_img/22.png\"" width=150 style=\""vertical-align:middle\"">---自我"",""<img src=\""../../test_img/26.png\"" width=150 style=\""vertical-align:middle\"">---朋友""]","","",""
"","","","","","html-keyboard-response","259","668073","0.0-9.0-0.0-0.0-0.1-1.73","null","<span style='color:GreenYellow; font-size: 70px;'>正确! </span>","null","","","","","","","","","","","","","","","","","","","","","","","","","feedback_test","",""
"","","","","","psychophysics","260","669796","0.0-9.0-0.0-0.0-0.1-0.74","720","","f","","","","","","","","","","","","","key","f","4.16548418491476","853.3333333333334","476","f","true","../../test_img/26.png","生人","matching_task","朋友","[""<img src=\""../../test_img/15.png\"" width=150 style=\""vertical-align:middle\"">---生人"",""<img src=\""../../test_img/22.png\"" width=150 style=\""vertical-align:middle\"">---自我"",""<img src=\""../../test_img/26.png\"" width=150 style=\""vertical-align:middle\"">---朋友""]","","",""
