"success","timeout","failed_images","failed_audio","failed_video","trial_type","trial_index","time_elapsed","internal_node_id","rt","stimulus","response","value","item_width_mm","item_height_mm","item_width_px","px2mm","view_dist_mm","item_width_deg","px2deg","scale_factor","win_width_deg","win_height_deg","view_history","response_type","key_press","avg_frame_time","center_x","center_y","correct_response","correct","Image","word","condition","shape","association","screen_id","LeftLable","RightLable"
"true","false","[]","[]","[]","preload","0","550","0.0-0.0","","","","","","","","","","","","","","","","","","","","","","","","","","","","","",""
"","","","","","html-keyboard-response","1","7612","0.0-1.0","7062","
     <p>您好，欢迎参加本次实验。</p>
     <p>为充分保障您的权利，请确保您已经知晓并同意《参与实验同意书》以及《数据公开知情同意书》。</p>
     <p>如果您未见过上述内容，请咨询实验员。</p>
     <p>如果您选择继续实验，则表示您已经清楚两份知情同意书的内容并同意。</p>
     <p> <div style = ""color: green""><按任意键至下页></div> </p>
     ","enter","","","","","","","","","","","","","","","","","","","","","","","","","","",""
"","","","","","html-keyboard-response","2","8780","0.0-2.0","1168","
     <p>本实验首先需要您填写一些基本个人信息。</p>
     <p> <div style = ""color: green""><按任意键至下页></div></p>
     ","enter","","","","","","","","","","","","","","","","","","","","","","","","","","",""
"","","","","","call-function","3","8781","0.0-3.0-0.0","","","","","","","","","","","","","","","","","","","","","","","","","","","","","",""
"","","","","","survey-html-form","4","11693","0.0-3.0-1.0","2911","","{""Q0"":""28""}","","","","","","","","","","","","","","","","","","","","","","","","","","",""
"","","","","","html-button-response","5","12820","0.0-3.0-2.0","1127","<p style = 'color : white'>您的性别</p>","1","","","","","","","","","","","","","","","","","","","","","","","","","","",""
"","","","","","survey-html-form","6","15957","0.0-3.0-3.0","3136","","{""Q0"":""2002""}","","","","","","","","","","","","","","","","","","","","","","","","","","",""
"","","","","","survey-html-form","7","17909","0.0-3.0-4.0","1951","","{""Q0"":""5""}","","","","","","","","","","","","","","","","","","","","","","","","","","",""
"","","","","","virtual-chinrest","8","54756","0.0-4.0","36847","","","","85.6","53.98","489.9417925867885","5.7159875801792","499.3","9.79883585173577","50","0.6368103409850103","38.24","19.24","","","","","","","","","","","","","","","",""
"true","","","","","fullscreen","9","57295","0.0-5.0","","","","","","","","","","","","","","","","","","","","","","","","","","","","","",""
"","","","","","instructions","10","116788","0.0-6.0","59493","","","","","","","","","","","","","","[{""page_index"":0,""viewing_time"":19949},{""page_index"":1,""viewing_time"":14912},{""page_index"":2,""viewing_time"":16264},{""page_index"":3,""viewing_time"":3064},{""page_index"":4,""viewing_time"":5304}]","","","","","","","","","","","","","","",""
"","","","","","psychophysics","11","118356","0.0-7.0-0.0-0.0","557","","f","","","","","","","","","","","","","key","f","16.683870967741843","960","536","j","false","../../test_img/22.png","朋友","prac_matching_task","生人","[""<img src=\""../../test_img/15.png\"" width=150 style=\""vertical-align:middle\"">---朋友"",""<img src=\""../../test_img/26.png\"" width=150 style=\""vertical-align:middle\"">---自我"",""<img src=\""../../test_img/22.png\"" width=150 style=\""vertical-align:middle\"">---生人""]","","",""
"","","","","","html-keyboard-response","12","118661","0.0-7.0-0.0-1.0","null","<span style='color:red; font-size: 70px;'>错误! </span>","null","","","","","","","","","","","","","","","","","","","","","","","","","feedback_test","",""
"","","","","","psychophysics","13","120060","0.0-7.0-0.0-0.1","389","","j","","","","","","","","","","","","","key","j","16.683132530120623","960","536","j","true","../../test_img/15.png","生人","prac_matching_task","朋友","[""<img src=\""../../test_img/15.png\"" width=150 style=\""vertical-align:middle\"">---朋友"",""<img src=\""../../test_img/26.png\"" width=150 style=\""vertical-align:middle\"">---自我"",""<img src=\""../../test_img/22.png\"" width=150 style=\""vertical-align:middle\"">---生人""]","","",""
"","","","","","html-keyboard-response","14","120368","0.0-7.0-0.0-1.1","null","<span style='color:GreenYellow; font-size: 70px;'>正确! </span>","null","","","","","","","","","","","","","","","","","","","","","","","","","feedback_test","",""
"","","","","","psychophysics","15","121996","0.0-7.0-0.0-0.2","623","","j","","","","","","","","","","","","","key","j","16.684536082474317","960","536","j","true","../../test_img/26.png","生人","prac_matching_task","自我","[""<img src=\""../../test_img/15.png\"" width=150 style=\""vertical-align:middle\"">---朋友"",""<img src=\""../../test_img/26.png\"" width=150 style=\""vertical-align:middle\"">---自我"",""<img src=\""../../test_img/22.png\"" width=150 style=\""vertical-align:middle\"">---生人""]","","",""
"","","","","","html-keyboard-response","16","122297","0.0-7.0-0.0-1.2","null","<span style='color:GreenYellow; font-size: 70px;'>正确! </span>","null","","","","","","","","","","","","","","","","","","","","","","","","","feedback_test","",""
"","","","","","psychophysics","17","123820","0.0-7.0-0.0-0.3","511","","f","","","","","","","","","","","","","key","f","16.68222222222216","960","536","j","false","../../test_img/15.png","自我","prac_matching_task","朋友","[""<img src=\""../../test_img/15.png\"" width=150 style=\""vertical-align:middle\"">---朋友"",""<img src=\""../../test_img/26.png\"" width=150 style=\""vertical-align:middle\"">---自我"",""<img src=\""../../test_img/22.png\"" width=150 style=\""vertical-align:middle\"">---生人""]","","",""
"","","","","","html-keyboard-response","18","124121","0.0-7.0-0.0-1.3","null","<span style='color:red; font-size: 70px;'>错误! </span>","null","","","","","","","","","","","","","","","","","","","","","","","","","feedback_test","",""
"","","","","","psychophysics","19","125564","0.0-7.0-0.0-0.4","440","","j","","","","","","","","","","","","","key","j","16.683720930232592","960","536","f","false","../../test_img/22.png","生人","prac_matching_task","生人","[""<img src=\""../../test_img/15.png\"" width=150 style=\""vertical-align:middle\"">---朋友"",""<img src=\""../../test_img/26.png\"" width=150 style=\""vertical-align:middle\"">---自我"",""<img src=\""../../test_img/22.png\"" width=150 style=\""vertical-align:middle\"">---生人""]","","",""
"","","","","","html-keyboard-response","20","125865","0.0-7.0-0.0-1.4","null","<span style='color:red; font-size: 70px;'>错误! </span>","null","","","","","","","","","","","","","","","","","","","","","","","","","feedback_test","",""
"","","","","","psychophysics","21","127340","0.0-7.0-0.0-0.5","465","","f","","","","","","","","","","","","","key","f","16.682758620689757","960","536","j","false","../../test_img/22.png","自我","prac_matching_task","生人","[""<img src=\""../../test_img/15.png\"" width=150 style=\""vertical-align:middle\"">---朋友"",""<img src=\""../../test_img/26.png\"" width=150 style=\""vertical-align:middle\"">---自我"",""<img src=\""../../test_img/22.png\"" width=150 style=\""vertical-align:middle\"">---生人""]","","",""
"","","","","","html-keyboard-response","22","127641","0.0-7.0-0.0-1.5","null","<span style='color:red; font-size: 70px;'>错误! </span>","null","","","","","","","","","","","","","","","","","","","","","","","","","feedback_test","",""
"","","","","","psychophysics","23","129044","0.0-7.0-0.0-0.6","400","","f","","","","","","","","","","","","","key","f","16.68554216867463","960","536","f","true","../../test_img/15.png","朋友","prac_matching_task","朋友","[""<img src=\""../../test_img/15.png\"" width=150 style=\""vertical-align:middle\"">---朋友"",""<img src=\""../../test_img/26.png\"" width=150 style=\""vertical-align:middle\"">---自我"",""<img src=\""../../test_img/22.png\"" width=150 style=\""vertical-align:middle\"">---生人""]","","",""
"","","","","","html-keyboard-response","24","129346","0.0-7.0-0.0-1.6","null","<span style='color:GreenYellow; font-size: 70px;'>正确! </span>","null","","","","","","","","","","","","","","","","","","","","","","","","","feedback_test","",""
"","","","","","psychophysics","25","130876","0.0-7.0-0.0-0.7","527","","j","","","","","","","","","","","","","key","j","16.684615384615416","960","536","f","false","../../test_img/22.png","生人","prac_matching_task","生人","[""<img src=\""../../test_img/15.png\"" width=150 style=\""vertical-align:middle\"">---朋友"",""<img src=\""../../test_img/26.png\"" width=150 style=\""vertical-align:middle\"">---自我"",""<img src=\""../../test_img/22.png\"" width=150 style=\""vertical-align:middle\"">---生人""]","","",""
"","","","","","html-keyboard-response","26","131177","0.0-7.0-0.0-1.7","null","<span style='color:red; font-size: 70px;'>错误! </span>","null","","","","","","","","","","","","","","","","","","","","","","","","","feedback_test","",""
"","","","","","psychophysics","27","132548","0.0-7.0-0.0-0.8","364","","f","","","","","","","","","","","","","key","f","16.68395061728388","960","536","f","true","../../test_img/15.png","朋友","prac_matching_task","朋友","[""<img src=\""../../test_img/15.png\"" width=150 style=\""vertical-align:middle\"">---朋友"",""<img src=\""../../test_img/26.png\"" width=150 style=\""vertical-align:middle\"">---自我"",""<img src=\""../../test_img/22.png\"" width=150 style=\""vertical-align:middle\"">---生人""]","","",""
"","","","","","html-keyboard-response","28","132849","0.0-7.0-0.0-1.8","null","<span style='color:GreenYellow; font-size: 70px;'>正确! </span>","null","","","","","","","","","","","","","","","","","","","","","","","","","feedback_test","",""
"","","","","","psychophysics","29","134348","0.0-7.0-0.0-0.9","496","","f","","","","","","","","","","","","","key","f","16.68426966292161","960","536","f","true","../../test_img/26.png","自我","prac_matching_task","自我","[""<img src=\""../../test_img/15.png\"" width=150 style=\""vertical-align:middle\"">---朋友"",""<img src=\""../../test_img/26.png\"" width=150 style=\""vertical-align:middle\"">---自我"",""<img src=\""../../test_img/22.png\"" width=150 style=\""vertical-align:middle\"">---生人""]","","",""
"","","","","","html-keyboard-response","30","134659","0.0-7.0-0.0-1.9","null","<span style='color:GreenYellow; font-size: 70px;'>正确! </span>","null","","","","","","","","","","","","","","","","","","","","","","","","","feedback_test","",""
"","","","","","psychophysics","31","136292","0.0-7.0-0.0-0.10","629","","f","","","","","","","","","","","","","key","f","16.683505154639356","960","536","j","false","../../test_img/26.png","朋友","prac_matching_task","自我","[""<img src=\""../../test_img/15.png\"" width=150 style=\""vertical-align:middle\"">---朋友"",""<img src=\""../../test_img/26.png\"" width=150 style=\""vertical-align:middle\"">---自我"",""<img src=\""../../test_img/22.png\"" width=150 style=\""vertical-align:middle\"">---生人""]","","",""
"","","","","","html-keyboard-response","32","136600","0.0-7.0-0.0-1.10","null","<span style='color:red; font-size: 70px;'>错误! </span>","null","","","","","","","","","","","","","","","","","","","","","","","","","feedback_test","",""
"","","","","","psychophysics","33","138108","0.0-7.0-0.0-0.11","501","","j","","","","","","","","","","","","","key","j","16.68444444444451","960","536","f","false","../../test_img/26.png","自我","prac_matching_task","自我","[""<img src=\""../../test_img/15.png\"" width=150 style=\""vertical-align:middle\"">---朋友"",""<img src=\""../../test_img/26.png\"" width=150 style=\""vertical-align:middle\"">---自我"",""<img src=\""../../test_img/22.png\"" width=150 style=\""vertical-align:middle\"">---生人""]","","",""
"","","","","","html-keyboard-response","34","138409","0.0-7.0-0.0-1.11","null","<span style='color:red; font-size: 70px;'>错误! </span>","null","","","","","","","","","","","","","","","","","","","","","","","","","feedback_test","",""
"","","","","","psychophysics","35","139844","0.0-7.0-0.0-0.12","432","","f","","","","","","","","","","","","","key","f","16.683529411764773","960","536","f","true","../../test_img/15.png","朋友","prac_matching_task","朋友","[""<img src=\""../../test_img/15.png\"" width=150 style=\""vertical-align:middle\"">---朋友"",""<img src=\""../../test_img/26.png\"" width=150 style=\""vertical-align:middle\"">---自我"",""<img src=\""../../test_img/22.png\"" width=150 style=\""vertical-align:middle\"">---生人""]","","",""
"","","","","","html-keyboard-response","36","140154","0.0-7.0-0.0-1.12","null","<span style='color:GreenYellow; font-size: 70px;'>正确! </span>","null","","","","","","","","","","","","","","","","","","","","","","","","","feedback_test","",""
"","","","","","psychophysics","37","141764","0.0-7.0-0.0-0.13","604","","j","","","","","","","","","","","","","key","j","16.685416666666544","960","536","j","true","../../test_img/15.png","生人","prac_matching_task","朋友","[""<img src=\""../../test_img/15.png\"" width=150 style=\""vertical-align:middle\"">---朋友"",""<img src=\""../../test_img/26.png\"" width=150 style=\""vertical-align:middle\"">---自我"",""<img src=\""../../test_img/22.png\"" width=150 style=\""vertical-align:middle\"">---生人""]","","",""
"","","","","","html-keyboard-response","38","142065","0.0-7.0-0.0-1.13","null","<span style='color:GreenYellow; font-size: 70px;'>正确! </span>","null","","","","","","","","","","","","","","","","","","","","","","","","","feedback_test","",""
"","","","","","psychophysics","39","143652","0.0-7.0-0.0-0.14","579","","j","","","","","","","","","","","","","key","j","16.681914893617083","960","536","j","true","../../test_img/26.png","朋友","prac_matching_task","自我","[""<img src=\""../../test_img/15.png\"" width=150 style=\""vertical-align:middle\"">---朋友"",""<img src=\""../../test_img/26.png\"" width=150 style=\""vertical-align:middle\"">---自我"",""<img src=\""../../test_img/22.png\"" width=150 style=\""vertical-align:middle\"">---生人""]","","",""
"","","","","","html-keyboard-response","40","143963","0.0-7.0-0.0-1.14","null","<span style='color:GreenYellow; font-size: 70px;'>正确! </span>","null","","","","","","","","","","","","","","","","","","","","","","","","","feedback_test","",""
"","","","","","psychophysics","41","145644","0.0-7.0-0.0-0.15","680","","f","","","","","","","","","","","","","key","f","16.682828282828048","960","536","j","false","../../test_img/22.png","自我","prac_matching_task","生人","[""<img src=\""../../test_img/15.png\"" width=150 style=\""vertical-align:middle\"">---朋友"",""<img src=\""../../test_img/26.png\"" width=150 style=\""vertical-align:middle\"">---自我"",""<img src=\""../../test_img/22.png\"" width=150 style=\""vertical-align:middle\"">---生人""]","","",""
"","","","","","html-keyboard-response","42","145947","0.0-7.0-0.0-1.15","null","<span style='color:red; font-size: 70px;'>错误! </span>","null","","","","","","","","","","","","","","","","","","","","","","","","","feedback_test","",""
"","","","","","psychophysics","43","147492","0.0-7.0-0.0-0.16","543","","j","","","","","","","","","","","","","key","j","16.680219780220035","960","536","f","false","../../test_img/22.png","生人","prac_matching_task","生人","[""<img src=\""../../test_img/15.png\"" width=150 style=\""vertical-align:middle\"">---朋友"",""<img src=\""../../test_img/26.png\"" width=150 style=\""vertical-align:middle\"">---自我"",""<img src=\""../../test_img/22.png\"" width=150 style=\""vertical-align:middle\"">---生人""]","","",""
"","","","","","html-keyboard-response","44","147792","0.0-7.0-0.0-1.16","null","<span style='color:red; font-size: 70px;'>错误! </span>","null","","","","","","","","","","","","","","","","","","","","","","","","","feedback_test","",""
"","","","","","psychophysics","45","149596","0.0-7.0-0.0-0.17","798","","f","","","","","","","","","","","","","key","f","16.685046728971855","960","536","f","true","../../test_img/22.png","生人","prac_matching_task","生人","[""<img src=\""../../test_img/15.png\"" width=150 style=\""vertical-align:middle\"">---朋友"",""<img src=\""../../test_img/26.png\"" width=150 style=\""vertical-align:middle\"">---自我"",""<img src=\""../../test_img/22.png\"" width=150 style=\""vertical-align:middle\"">---生人""]","","",""
"","","","","","html-keyboard-response","46","149897","0.0-7.0-0.0-1.17","null","<span style='color:GreenYellow; font-size: 70px;'>正确! </span>","null","","","","","","","","","","","","","","","","","","","","","","","","","feedback_test","",""
"","","","","","psychophysics","47","151549","0.0-7.0-0.0-0.18","651","","f","","","","","","","","","","","","","key","f","16.68469387755108","960","536","j","false","../../test_img/22.png","朋友","prac_matching_task","生人","[""<img src=\""../../test_img/15.png\"" width=150 style=\""vertical-align:middle\"">---朋友"",""<img src=\""../../test_img/26.png\"" width=150 style=\""vertical-align:middle\"">---自我"",""<img src=\""../../test_img/22.png\"" width=150 style=\""vertical-align:middle\"">---生人""]","","",""
"","","","","","html-keyboard-response","48","151851","0.0-7.0-0.0-1.18","null","<span style='color:red; font-size: 70px;'>错误! </span>","null","","","","","","","","","","","","","","","","","","","","","","","","","feedback_test","",""
"","","","","","psychophysics","49","153388","0.0-7.0-0.0-0.19","533","","f","","","","","","","","","","","","","key","f","16.685714285714223","960","536","f","true","../../test_img/15.png","朋友","prac_matching_task","朋友","[""<img src=\""../../test_img/15.png\"" width=150 style=\""vertical-align:middle\"">---朋友"",""<img src=\""../../test_img/26.png\"" width=150 style=\""vertical-align:middle\"">---自我"",""<img src=\""../../test_img/22.png\"" width=150 style=\""vertical-align:middle\"">---生人""]","","",""
"","","","","","html-keyboard-response","50","153693","0.0-7.0-0.0-1.19","null","<span style='color:GreenYellow; font-size: 70px;'>正确! </span>","null","","","","","","","","","","","","","","","","","","","","","","","","","feedback_test","",""
"","","","","","psychophysics","51","155300","0.0-7.0-0.0-0.20","603","","f","","","","","","","","","","","","","key","f","16.68421052631579","960","536","j","false","../../test_img/15.png","自我","prac_matching_task","朋友","[""<img src=\""../../test_img/15.png\"" width=150 style=\""vertical-align:middle\"">---朋友"",""<img src=\""../../test_img/26.png\"" width=150 style=\""vertical-align:middle\"">---自我"",""<img src=\""../../test_img/22.png\"" width=150 style=\""vertical-align:middle\"">---生人""]","","",""
"","","","","","html-keyboard-response","52","155604","0.0-7.0-0.0-1.20","null","<span style='color:red; font-size: 70px;'>错误! </span>","null","","","","","","","","","","","","","","","","","","","","","","","","","feedback_test","",""
"","","","","","psychophysics","53","157508","0.0-7.0-0.0-0.21","899","","f","","","","","","","","","","","","","key","f","16.683185840708067","960","536","j","false","../../test_img/26.png","生人","prac_matching_task","自我","[""<img src=\""../../test_img/15.png\"" width=150 style=\""vertical-align:middle\"">---朋友"",""<img src=\""../../test_img/26.png\"" width=150 style=\""vertical-align:middle\"">---自我"",""<img src=\""../../test_img/22.png\"" width=150 style=\""vertical-align:middle\"">---生人""]","","",""
"","","","","","html-keyboard-response","54","157814","0.0-7.0-0.0-1.21","null","<span style='color:red; font-size: 70px;'>错误! </span>","null","","","","","","","","","","","","","","","","","","","","","","","","","feedback_test","",""
"","","","","","psychophysics","55","159724","0.0-7.0-0.0-0.22","900","","j","","","","","","","","","","","","","key","j","16.683185840708067","960","536","f","false","../../test_img/26.png","自我","prac_matching_task","自我","[""<img src=\""../../test_img/15.png\"" width=150 style=\""vertical-align:middle\"">---朋友"",""<img src=\""../../test_img/26.png\"" width=150 style=\""vertical-align:middle\"">---自我"",""<img src=\""../../test_img/22.png\"" width=150 style=\""vertical-align:middle\"">---生人""]","","",""
"","","","","","html-keyboard-response","56","160031","0.0-7.0-0.0-1.22","null","<span style='color:red; font-size: 70px;'>错误! </span>","null","","","","","","","","","","","","","","","","","","","","","","","","","feedback_test","",""
"","","","","","psychophysics","57","161508","0.0-7.0-0.0-0.23","471","","f","","","","","","","","","","","","","key","f","16.682758620689924","960","536","f","true","../../test_img/26.png","自我","prac_matching_task","自我","[""<img src=\""../../test_img/15.png\"" width=150 style=\""vertical-align:middle\"">---朋友"",""<img src=\""../../test_img/26.png\"" width=150 style=\""vertical-align:middle\"">---自我"",""<img src=\""../../test_img/22.png\"" width=150 style=\""vertical-align:middle\"">---生人""]","","",""
"","","","","","html-keyboard-response","58","161821","0.0-7.0-0.0-1.23","null","<span style='color:GreenYellow; font-size: 70px;'>正确! </span>","null","","","","","","","","","","","","","","","","","","","","","","","","","feedback_test","",""
"","","","","","html-keyboard-response","59","174461","0.0-7.0-1.0-0.0","12639","<style>.context{color:white; font-size: 35px; line-height:40px}</style>                          <div><p class='context'>您正确回答了46% 的试次。</p ><p class='context'>您的平均反应时为517毫秒。</p >"," ","","","","","","","","","","","","","","","","","","","","","","","","","","",""
"","","","","","instructions","60","188804","0.0-7.0-1.0-1.0","14343","","","","","","","","","","","","","","[{""page_index"":0,""viewing_time"":2559},{""page_index"":1,""viewing_time"":7952},{""page_index"":2,""viewing_time"":2040},{""page_index"":3,""viewing_time"":1792}]","","","","","","","","","","","","","","",""
"","","","","","psychophysics","61","190196","0.0-7.1-0.1-0.24","387","","f","","","","","","","","","","","","","key","f","16.6843373493978","960","536","j","false","../../test_img/15.png","生人","prac_matching_task","朋友","[""<img src=\""../../test_img/15.png\"" width=150 style=\""vertical-align:middle\"">---朋友"",""<img src=\""../../test_img/26.png\"" width=150 style=\""vertical-align:middle\"">---自我"",""<img src=\""../../test_img/22.png\"" width=150 style=\""vertical-align:middle\"">---生人""]","","",""
"","","","","","html-keyboard-response","62","190500","0.0-7.1-0.1-1.24","null","<span style='color:red; font-size: 70px;'>错误! </span>","null","","","","","","","","","","","","","","","","","","","","","","","","","feedback_test","",""
"","","","","","psychophysics","63","192076","0.0-7.1-0.1-0.25","568","","j","","","","","","","","","","","","","key","j","16.683870967741687","960","536","f","false","../../test_img/22.png","生人","prac_matching_task","生人","[""<img src=\""../../test_img/15.png\"" width=150 style=\""vertical-align:middle\"">---朋友"",""<img src=\""../../test_img/26.png\"" width=150 style=\""vertical-align:middle\"">---自我"",""<img src=\""../../test_img/22.png\"" width=150 style=\""vertical-align:middle\"">---生人""]","","",""
"","","","","","html-keyboard-response","64","192380","0.0-7.1-0.1-1.25","null","<span style='color:red; font-size: 70px;'>错误! </span>","null","","","","","","","","","","","","","","","","","","","","","","","","","feedback_test","",""
"","","","","","psychophysics","65","193836","0.0-7.1-0.1-0.26","443","","j","","","","","","","","","","","","","key","j","16.680232558139537","960","536","f","false","../../test_img/22.png","生人","prac_matching_task","生人","[""<img src=\""../../test_img/15.png\"" width=150 style=\""vertical-align:middle\"">---朋友"",""<img src=\""../../test_img/26.png\"" width=150 style=\""vertical-align:middle\"">---自我"",""<img src=\""../../test_img/22.png\"" width=150 style=\""vertical-align:middle\"">---生人""]","","",""
"","","","","","html-keyboard-response","66","194144","0.0-7.1-0.1-1.26","null","<span style='color:red; font-size: 70px;'>错误! </span>","null","","","","","","","","","","","","","","","","","","","","","","","","","feedback_test","",""
"","","","","","psychophysics","67","195532","0.0-7.1-0.1-0.27","387","","f","","","","","","","","","","","","","key","f","16.68313253012027","960","536","j","false","../../test_img/15.png","自我","prac_matching_task","朋友","[""<img src=\""../../test_img/15.png\"" width=150 style=\""vertical-align:middle\"">---朋友"",""<img src=\""../../test_img/26.png\"" width=150 style=\""vertical-align:middle\"">---自我"",""<img src=\""../../test_img/22.png\"" width=150 style=\""vertical-align:middle\"">---生人""]","","",""
"","","","","","html-keyboard-response","68","195834","0.0-7.1-0.1-1.27","null","<span style='color:red; font-size: 70px;'>错误! </span>","null","","","","","","","","","","","","","","","","","","","","","","","","","feedback_test","",""
"","","","","","psychophysics","69","197700","0.0-7.1-0.1-0.28","852","","f","","","","","","","","","","","","","key","f","16.68363636363647","960","536","j","false","../../test_img/22.png","自我","prac_matching_task","生人","[""<img src=\""../../test_img/15.png\"" width=150 style=\""vertical-align:middle\"">---朋友"",""<img src=\""../../test_img/26.png\"" width=150 style=\""vertical-align:middle\"">---自我"",""<img src=\""../../test_img/22.png\"" width=150 style=\""vertical-align:middle\"">---生人""]","","",""
"","","","","","html-keyboard-response","70","198008","0.0-7.1-0.1-1.28","null","<span style='color:red; font-size: 70px;'>错误! </span>","null","","","","","","","","","","","","","","","","","","","","","","","","","feedback_test","",""
"","","","","","psychophysics","71","200519","0.0-7.1-0.1-0.29","null","","null","","","","","","","","","","","","","key","null","16.68322147650999","960","536","j","false","../../test_img/22.png","朋友","prac_matching_task","生人","[""<img src=\""../../test_img/15.png\"" width=150 style=\""vertical-align:middle\"">---朋友"",""<img src=\""../../test_img/26.png\"" width=150 style=\""vertical-align:middle\"">---自我"",""<img src=\""../../test_img/22.png\"" width=150 style=\""vertical-align:middle\"">---生人""]","","",""
"","","","","","html-keyboard-response","72","200832","0.0-7.1-0.1-1.29","null","<span class='add_' style='color:yellow; font-size: 70px;'> 太慢! </span>","null","","","","","","","","","","","","","","","","","","","","","","","","","feedback_test","",""
"","","","","","psychophysics","73","202404","0.0-7.1-0.1-0.30","570","","f","","","","","","","","","","","","","key","f","16.68494623655895","960","536","f","true","../../test_img/26.png","自我","prac_matching_task","自我","[""<img src=\""../../test_img/15.png\"" width=150 style=\""vertical-align:middle\"">---朋友"",""<img src=\""../../test_img/26.png\"" width=150 style=\""vertical-align:middle\"">---自我"",""<img src=\""../../test_img/22.png\"" width=150 style=\""vertical-align:middle\"">---生人""]","","",""
"","","","","","html-keyboard-response","74","202705","0.0-7.1-0.1-1.30","null","<span style='color:GreenYellow; font-size: 70px;'>正确! </span>","null","","","","","","","","","","","","","","","","","","","","","","","","","feedback_test","",""
"","","","","","psychophysics","75","204516","0.0-7.1-0.1-0.31","810","","j","","","","","","","","","","","","","key","j","16.683177570093513","960","536","f","false","../../test_img/15.png","朋友","prac_matching_task","朋友","[""<img src=\""../../test_img/15.png\"" width=150 style=\""vertical-align:middle\"">---朋友"",""<img src=\""../../test_img/26.png\"" width=150 style=\""vertical-align:middle\"">---自我"",""<img src=\""../../test_img/22.png\"" width=150 style=\""vertical-align:middle\"">---生人""]","","",""
"","","","","","html-keyboard-response","76","204831","0.0-7.1-0.1-1.31","null","<span style='color:red; font-size: 70px;'>错误! </span>","null","","","","","","","","","","","","","","","","","","","","","","","","","feedback_test","",""
"","","","","","psychophysics","77","206781","0.0-7.1-0.1-0.32","939","","f","","","","","","","","","","","","","key","f","16.682758620689757","960","536","f","true","../../test_img/15.png","朋友","prac_matching_task","朋友","[""<img src=\""../../test_img/15.png\"" width=150 style=\""vertical-align:middle\"">---朋友"",""<img src=\""../../test_img/26.png\"" width=150 style=\""vertical-align:middle\"">---自我"",""<img src=\""../../test_img/22.png\"" width=150 style=\""vertical-align:middle\"">---生人""]","","",""
"","","","","","html-keyboard-response","78","207086","0.0-7.1-0.1-1.32","null","<span style='color:GreenYellow; font-size: 70px;'>正确! </span>","null","","","","","","","","","","","","","","","","","","","","","","","","","feedback_test","",""
"","","","","","psychophysics","79","209092","0.0-7.1-0.1-0.33","998","","j","","","","","","","","","","","","","key","j","16.683193277310828","960","536","j","true","../../test_img/26.png","朋友","prac_matching_task","自我","[""<img src=\""../../test_img/15.png\"" width=150 style=\""vertical-align:middle\"">---朋友"",""<img src=\""../../test_img/26.png\"" width=150 style=\""vertical-align:middle\"">---自我"",""<img src=\""../../test_img/22.png\"" width=150 style=\""vertical-align:middle\"">---生人""]","","",""
"","","","","","html-keyboard-response","80","209393","0.0-7.1-0.1-1.33","null","<span style='color:GreenYellow; font-size: 70px;'>正确! </span>","null","","","","","","","","","","","","","","","","","","","","","","","","","feedback_test","",""
"","","","","","psychophysics","81","211212","0.0-7.1-0.1-0.34","816","","f","","","","","","","","","","","","","key","f","16.684259259259473","960","536","j","false","../../test_img/26.png","生人","prac_matching_task","自我","[""<img src=\""../../test_img/15.png\"" width=150 style=\""vertical-align:middle\"">---朋友"",""<img src=\""../../test_img/26.png\"" width=150 style=\""vertical-align:middle\"">---自我"",""<img src=\""../../test_img/22.png\"" width=150 style=\""vertical-align:middle\"">---生人""]","","",""
"","","","","","html-keyboard-response","82","211528","0.0-7.1-0.1-1.34","null","<span style='color:red; font-size: 70px;'>错误! </span>","null","","","","","","","","","","","","","","","","","","","","","","","","","feedback_test","",""
"","","","","","psychophysics","83","213172","0.0-7.1-0.1-0.35","643","","f","","","","","","","","","","","","","key","f","16.682653061224432","960","536","f","true","../../test_img/26.png","自我","prac_matching_task","自我","[""<img src=\""../../test_img/15.png\"" width=150 style=\""vertical-align:middle\"">---朋友"",""<img src=\""../../test_img/26.png\"" width=150 style=\""vertical-align:middle\"">---自我"",""<img src=\""../../test_img/22.png\"" width=150 style=\""vertical-align:middle\"">---生人""]","","",""
"","","","","","html-keyboard-response","84","213486","0.0-7.1-0.1-1.35","null","<span style='color:GreenYellow; font-size: 70px;'>正确! </span>","null","","","","","","","","","","","","","","","","","","","","","","","","","feedback_test","",""
"","","","","","psychophysics","85","215212","0.0-7.1-0.1-0.36","720","","f","","","","","","","","","","","","","key","f","16.684313725490366","960","536","f","true","../../test_img/26.png","自我","prac_matching_task","自我","[""<img src=\""../../test_img/15.png\"" width=150 style=\""vertical-align:middle\"">---朋友"",""<img src=\""../../test_img/26.png\"" width=150 style=\""vertical-align:middle\"">---自我"",""<img src=\""../../test_img/22.png\"" width=150 style=\""vertical-align:middle\"">---生人""]","","",""
"","","","","","html-keyboard-response","86","215524","0.0-7.1-0.1-1.36","null","<span style='color:GreenYellow; font-size: 70px;'>正确! </span>","null","","","","","","","","","","","","","","","","","","","","","","","","","feedback_test","",""
"","","","","","psychophysics","87","217061","0.0-7.1-0.1-0.37","525","","f","","","","","","","","","","","","","key","f","16.683516483516613","960","536","f","true","../../test_img/15.png","朋友","prac_matching_task","朋友","[""<img src=\""../../test_img/15.png\"" width=150 style=\""vertical-align:middle\"">---朋友"",""<img src=\""../../test_img/26.png\"" width=150 style=\""vertical-align:middle\"">---自我"",""<img src=\""../../test_img/22.png\"" width=150 style=\""vertical-align:middle\"">---生人""]","","",""
"","","","","","html-keyboard-response","88","217368","0.0-7.1-0.1-1.37","null","<span style='color:GreenYellow; font-size: 70px;'>正确! </span>","null","","","","","","","","","","","","","","","","","","","","","","","","","feedback_test","",""
"","","","","","psychophysics","89","219076","0.0-7.1-0.1-0.38","705","","j","","","","","","","","","","","","","key","j","16.681372549019606","960","536","f","false","../../test_img/22.png","生人","prac_matching_task","生人","[""<img src=\""../../test_img/15.png\"" width=150 style=\""vertical-align:middle\"">---朋友"",""<img src=\""../../test_img/26.png\"" width=150 style=\""vertical-align:middle\"">---自我"",""<img src=\""../../test_img/22.png\"" width=150 style=\""vertical-align:middle\"">---生人""]","","",""
"","","","","","html-keyboard-response","90","219382","0.0-7.1-0.1-1.38","null","<span style='color:red; font-size: 70px;'>错误! </span>","null","","","","","","","","","","","","","","","","","","","","","","","","","feedback_test","",""
"","","","","","psychophysics","91","221132","0.0-7.1-0.1-0.39","748","","f","","","","","","","","","","","","","key","f","16.68365384615362","960","536","j","false","../../test_img/15.png","生人","prac_matching_task","朋友","[""<img src=\""../../test_img/15.png\"" width=150 style=\""vertical-align:middle\"">---朋友"",""<img src=\""../../test_img/26.png\"" width=150 style=\""vertical-align:middle\"">---自我"",""<img src=\""../../test_img/22.png\"" width=150 style=\""vertical-align:middle\"">---生人""]","","",""
"","","","","","html-keyboard-response","92","221445","0.0-7.1-0.1-1.39","null","<span style='color:red; font-size: 70px;'>错误! </span>","null","","","","","","","","","","","","","","","","","","","","","","","","","feedback_test","",""
"","","","","","psychophysics","93","223148","0.0-7.1-0.1-0.40","690","","j","","","","","","","","","","","","","key","j","16.6851485148516","960","536","j","true","../../test_img/26.png","生人","prac_matching_task","自我","[""<img src=\""../../test_img/15.png\"" width=150 style=\""vertical-align:middle\"">---朋友"",""<img src=\""../../test_img/26.png\"" width=150 style=\""vertical-align:middle\"">---自我"",""<img src=\""../../test_img/22.png\"" width=150 style=\""vertical-align:middle\"">---生人""]","","",""
"","","","","","html-keyboard-response","94","223462","0.0-7.1-0.1-1.40","null","<span style='color:GreenYellow; font-size: 70px;'>正确! </span>","null","","","","","","","","","","","","","","","","","","","","","","","","","feedback_test","",""
"","","","","","psychophysics","95","225164","0.0-7.1-0.1-0.41","700","","f","","","","","","","","","","","","","key","f","16.683168316831683","960","536","j","false","../../test_img/15.png","自我","prac_matching_task","朋友","[""<img src=\""../../test_img/15.png\"" width=150 style=\""vertical-align:middle\"">---朋友"",""<img src=\""../../test_img/26.png\"" width=150 style=\""vertical-align:middle\"">---自我"",""<img src=\""../../test_img/22.png\"" width=150 style=\""vertical-align:middle\"">---生人""]","","",""
"","","","","","html-keyboard-response","96","225465","0.0-7.1-0.1-1.41","null","<span style='color:red; font-size: 70px;'>错误! </span>","null","","","","","","","","","","","","","","","","","","","","","","","","","feedback_test","",""
"","","","","","psychophysics","97","227260","0.0-7.1-0.1-0.42","782","","j","","","","","","","","","","","","","key","j","16.683962264150942","960","536","f","false","../../test_img/26.png","自我","prac_matching_task","自我","[""<img src=\""../../test_img/15.png\"" width=150 style=\""vertical-align:middle\"">---朋友"",""<img src=\""../../test_img/26.png\"" width=150 style=\""vertical-align:middle\"">---自我"",""<img src=\""../../test_img/22.png\"" width=150 style=\""vertical-align:middle\"">---生人""]","","",""
"","","","","","html-keyboard-response","98","227565","0.0-7.1-0.1-1.42","null","<span style='color:red; font-size: 70px;'>错误! </span>","null","","","","","","","","","","","","","","","","","","","","","","","","","feedback_test","",""
"","","","","","psychophysics","99","230066","0.0-7.1-0.1-0.43","null","","null","","","","","","","","","","","","","key","null","16.68322147650999","960","536","j","false","../../test_img/22.png","朋友","prac_matching_task","生人","[""<img src=\""../../test_img/15.png\"" width=150 style=\""vertical-align:middle\"">---朋友"",""<img src=\""../../test_img/26.png\"" width=150 style=\""vertical-align:middle\"">---自我"",""<img src=\""../../test_img/22.png\"" width=150 style=\""vertical-align:middle\"">---生人""]","","",""
"","","","","","html-keyboard-response","100","230378","0.0-7.1-0.1-1.43","null","<span class='add_' style='color:yellow; font-size: 70px;'> 太慢! </span>","null","","","","","","","","","","","","","","","","","","","","","","","","","feedback_test","",""
"","","","","","psychophysics","101","232044","0.0-7.1-0.1-0.44","661","","f","","","","","","","","","","","","","key","f","16.685858585858526","960","536","j","false","../../test_img/26.png","朋友","prac_matching_task","自我","[""<img src=\""../../test_img/15.png\"" width=150 style=\""vertical-align:middle\"">---朋友"",""<img src=\""../../test_img/26.png\"" width=150 style=\""vertical-align:middle\"">---自我"",""<img src=\""../../test_img/22.png\"" width=150 style=\""vertical-align:middle\"">---生人""]","","",""
"","","","","","html-keyboard-response","102","232355","0.0-7.1-0.1-1.44","null","<span style='color:red; font-size: 70px;'>错误! </span>","null","","","","","","","","","","","","","","","","","","","","","","","","","feedback_test","",""
"","","","","","psychophysics","103","234372","0.0-7.1-0.1-0.45","1015","","j","","","","","","","","","","","","","key","j","16.683333333333334","960","536","f","false","../../test_img/22.png","生人","prac_matching_task","生人","[""<img src=\""../../test_img/15.png\"" width=150 style=\""vertical-align:middle\"">---朋友"",""<img src=\""../../test_img/26.png\"" width=150 style=\""vertical-align:middle\"">---自我"",""<img src=\""../../test_img/22.png\"" width=150 style=\""vertical-align:middle\"">---生人""]","","",""
"","","","","","html-keyboard-response","104","234682","0.0-7.1-0.1-1.45","null","<span style='color:red; font-size: 70px;'>错误! </span>","null","","","","","","","","","","","","","","","","","","","","","","","","","feedback_test","",""
"","","","","","psychophysics","105","237189","0.0-7.1-0.1-0.46","null","","null","","","","","","","","","","","","","key","null","16.684563758389263","960","536","f","false","../../test_img/15.png","朋友","prac_matching_task","朋友","[""<img src=\""../../test_img/15.png\"" width=150 style=\""vertical-align:middle\"">---朋友"",""<img src=\""../../test_img/26.png\"" width=150 style=\""vertical-align:middle\"">---自我"",""<img src=\""../../test_img/22.png\"" width=150 style=\""vertical-align:middle\"">---生人""]","","",""
"","","","","","html-keyboard-response","106","237504","0.0-7.1-0.1-1.46","null","<span class='add_' style='color:yellow; font-size: 70px;'> 太慢! </span>","null","","","","","","","","","","","","","","","","","","","","","","","","","feedback_test","",""
"","","","","","psychophysics","107","239460","0.0-7.1-0.1-0.47","955","","f","","","","","","","","","","","","","key","f","16.683760683760685","960","536","j","false","../../test_img/22.png","自我","prac_matching_task","生人","[""<img src=\""../../test_img/15.png\"" width=150 style=\""vertical-align:middle\"">---朋友"",""<img src=\""../../test_img/26.png\"" width=150 style=\""vertical-align:middle\"">---自我"",""<img src=\""../../test_img/22.png\"" width=150 style=\""vertical-align:middle\"">---生人""]","","",""
"","","","","","html-keyboard-response","108","239774","0.0-7.1-0.1-1.47","null","<span style='color:red; font-size: 70px;'>错误! </span>","null","","","","","","","","","","","","","","","","","","","","","","","","","feedback_test","",""
"","","","","","html-keyboard-response","109","259269","0.0-7.1-1.1-0.1","19494","<style>.context{color:white; font-size: 35px; line-height:40px}</style>                          <div><p class='context'>您正确回答了29% 的试次。</p ><p class='context'>您的平均反应时为726毫秒。</p >"," ","","","","","","","","","","","","","","","","","","","","","","","","","","",""
"","","","","","instructions","110","264532","0.0-7.1-1.1-1.1","5263","","","","","","","","","","","","","","[{""page_index"":0,""viewing_time"":815},{""page_index"":1,""viewing_time"":688},{""page_index"":2,""viewing_time"":2088},{""page_index"":3,""viewing_time"":1672}]","","","","","","","","","","","","","","",""
"","","","","","psychophysics","111","266420","0.0-7.2-0.2-0.48","885","","j","","","","","","","","","","","","","key","j","16.683928571428364","960","536","j","true","../../test_img/26.png","生人","prac_matching_task","自我","[""<img src=\""../../test_img/15.png\"" width=150 style=\""vertical-align:middle\"">---朋友"",""<img src=\""../../test_img/26.png\"" width=150 style=\""vertical-align:middle\"">---自我"",""<img src=\""../../test_img/22.png\"" width=150 style=\""vertical-align:middle\"">---生人""]","","",""
"","","","","","html-keyboard-response","112","266721","0.0-7.2-0.2-1.48","null","<span style='color:GreenYellow; font-size: 70px;'>正确! </span>","null","","","","","","","","","","","","","","","","","","","","","","","","","feedback_test","",""
"","","","","","psychophysics","113","268196","0.0-7.2-0.2-0.49","462","","f","","","","","","","","","","","","","key","f","16.681609195402164","960","536","f","true","../../test_img/15.png","朋友","prac_matching_task","朋友","[""<img src=\""../../test_img/15.png\"" width=150 style=\""vertical-align:middle\"">---朋友"",""<img src=\""../../test_img/26.png\"" width=150 style=\""vertical-align:middle\"">---自我"",""<img src=\""../../test_img/22.png\"" width=150 style=\""vertical-align:middle\"">---生人""]","","",""
"","","","","","html-keyboard-response","114","268496","0.0-7.2-0.2-1.49","null","<span style='color:GreenYellow; font-size: 70px;'>正确! </span>","null","","","","","","","","","","","","","","","","","","","","","","","","","feedback_test","",""
"","","","","","psychophysics","115","270324","0.0-7.2-0.2-0.50","819","","j","","","","","","","","","","","","","key","j","16.68348623853211","960","536","f","false","../../test_img/26.png","自我","prac_matching_task","自我","[""<img src=\""../../test_img/15.png\"" width=150 style=\""vertical-align:middle\"">---朋友"",""<img src=\""../../test_img/26.png\"" width=150 style=\""vertical-align:middle\"">---自我"",""<img src=\""../../test_img/22.png\"" width=150 style=\""vertical-align:middle\"">---生人""]","","",""
"","","","","","html-keyboard-response","116","270630","0.0-7.2-0.2-1.50","null","<span style='color:red; font-size: 70px;'>错误! </span>","null","","","","","","","","","","","","","","","","","","","","","","","","","feedback_test","",""
"","","","","","psychophysics","117","272300","0.0-7.2-0.2-0.51","664","","f","","","","","","","","","","","","","key","f","16.683838383838502","960","536","j","false","../../test_img/15.png","生人","prac_matching_task","朋友","[""<img src=\""../../test_img/15.png\"" width=150 style=\""vertical-align:middle\"">---朋友"",""<img src=\""../../test_img/26.png\"" width=150 style=\""vertical-align:middle\"">---自我"",""<img src=\""../../test_img/22.png\"" width=150 style=\""vertical-align:middle\"">---生人""]","","",""
"","","","","","html-keyboard-response","118","272601","0.0-7.2-0.2-1.51","null","<span style='color:red; font-size: 70px;'>错误! </span>","null","","","","","","","","","","","","","","","","","","","","","","","","","feedback_test","",""
"","","","","","psychophysics","119","274476","0.0-7.2-0.2-0.52","867","","j","","","","","","","","","","","","","key","j","16.68288288288278","960","536","f","false","../../test_img/22.png","生人","prac_matching_task","生人","[""<img src=\""../../test_img/15.png\"" width=150 style=\""vertical-align:middle\"">---朋友"",""<img src=\""../../test_img/26.png\"" width=150 style=\""vertical-align:middle\"">---自我"",""<img src=\""../../test_img/22.png\"" width=150 style=\""vertical-align:middle\"">---生人""]","","",""
"","","","","","html-keyboard-response","120","274777","0.0-7.2-0.2-1.52","null","<span style='color:red; font-size: 70px;'>错误! </span>","null","","","","","","","","","","","","","","","","","","","","","","","","","feedback_test","",""
"","","","","","psychophysics","121","276540","0.0-7.2-0.2-0.53","761","","f","","","","","","","","","","","","","key","f","16.682692307692307","960","536","j","false","../../test_img/22.png","自我","prac_matching_task","生人","[""<img src=\""../../test_img/15.png\"" width=150 style=\""vertical-align:middle\"">---朋友"",""<img src=\""../../test_img/26.png\"" width=150 style=\""vertical-align:middle\"">---自我"",""<img src=\""../../test_img/22.png\"" width=150 style=\""vertical-align:middle\"">---生人""]","","",""
"","","","","","html-keyboard-response","122","276852","0.0-7.2-0.2-1.53","null","<span style='color:red; font-size: 70px;'>错误! </span>","null","","","","","","","","","","","","","","","","","","","","","","","","","feedback_test","",""
"","","","","","psychophysics","123","278892","0.0-7.2-0.2-0.54","1028","","f","","","","","","","","","","","","","key","f","16.68429752066106","960","536","j","false","../../test_img/26.png","朋友","prac_matching_task","自我","[""<img src=\""../../test_img/15.png\"" width=150 style=\""vertical-align:middle\"">---朋友"",""<img src=\""../../test_img/26.png\"" width=150 style=\""vertical-align:middle\"">---自我"",""<img src=\""../../test_img/22.png\"" width=150 style=\""vertical-align:middle\"">---生人""]","","",""
"","","","","","html-keyboard-response","124","279195","0.0-7.2-0.2-1.54","null","<span style='color:red; font-size: 70px;'>错误! </span>","null","","","","","","","","","","","","","","","","","","","","","","","","","feedback_test","",""
"","","","","","psychophysics","125","281698","0.0-7.2-0.2-0.55","null","","null","","","","","","","","","","","","","key","null","16.68322147650999","960","536","j","false","../../test_img/22.png","朋友","prac_matching_task","生人","[""<img src=\""../../test_img/15.png\"" width=150 style=\""vertical-align:middle\"">---朋友"",""<img src=\""../../test_img/26.png\"" width=150 style=\""vertical-align:middle\"">---自我"",""<img src=\""../../test_img/22.png\"" width=150 style=\""vertical-align:middle\"">---生人""]","","",""
"","","","","","html-keyboard-response","126","282011","0.0-7.2-0.2-1.55","null","<span class='add_' style='color:yellow; font-size: 70px;'> 太慢! </span>","null","","","","","","","","","","","","","","","","","","","","","","","","","feedback_test","",""
"","","","","","psychophysics","127","283605","0.0-7.2-0.2-0.56","586","","f","","","","","","","","","","","","","key","f","16.685263157894493","960","536","f","true","../../test_img/15.png","朋友","prac_matching_task","朋友","[""<img src=\""../../test_img/15.png\"" width=150 style=\""vertical-align:middle\"">---朋友"",""<img src=\""../../test_img/26.png\"" width=150 style=\""vertical-align:middle\"">---自我"",""<img src=\""../../test_img/22.png\"" width=150 style=\""vertical-align:middle\"">---生人""]","","",""
"","","","","","html-keyboard-response","128","283919","0.0-7.2-0.2-1.56","null","<span style='color:GreenYellow; font-size: 70px;'>正确! </span>","null","","","","","","","","","","","","","","","","","","","","","","","","","feedback_test","",""
"","","","","","psychophysics","129","285572","0.0-7.2-0.2-0.57","651","","f","","","","","","","","","","","","","key","f","16.68061224489808","960","536","f","true","../../test_img/26.png","自我","prac_matching_task","自我","[""<img src=\""../../test_img/15.png\"" width=150 style=\""vertical-align:middle\"">---朋友"",""<img src=\""../../test_img/26.png\"" width=150 style=\""vertical-align:middle\"">---自我"",""<img src=\""../../test_img/22.png\"" width=150 style=\""vertical-align:middle\"">---生人""]","","",""
"","","","","","html-keyboard-response","130","285873","0.0-7.2-0.2-1.57","null","<span style='color:GreenYellow; font-size: 70px;'>正确! </span>","null","","","","","","","","","","","","","","","","","","","","","","","","","feedback_test","",""
"","","","","","psychophysics","131","287668","0.0-7.2-0.2-0.58","789","","j","","","","","","","","","","","","","key","j","16.68679245283008","960","536","j","true","../../test_img/15.png","自我","prac_matching_task","朋友","[""<img src=\""../../test_img/15.png\"" width=150 style=\""vertical-align:middle\"">---朋友"",""<img src=\""../../test_img/26.png\"" width=150 style=\""vertical-align:middle\"">---自我"",""<img src=\""../../test_img/22.png\"" width=150 style=\""vertical-align:middle\"">---生人""]","","",""
"","","","","","html-keyboard-response","132","287975","0.0-7.2-0.2-1.58","null","<span style='color:GreenYellow; font-size: 70px;'>正确! </span>","null","","","","","","","","","","","","","","","","","","","","","","","","","feedback_test","",""
"","","","","","psychophysics","133","289820","0.0-7.2-0.2-0.59","841","","j","","","","","","","","","","","","","key","j","16.685321100917538","960","536","f","false","../../test_img/22.png","生人","prac_matching_task","生人","[""<img src=\""../../test_img/15.png\"" width=150 style=\""vertical-align:middle\"">---朋友"",""<img src=\""../../test_img/26.png\"" width=150 style=\""vertical-align:middle\"">---自我"",""<img src=\""../../test_img/22.png\"" width=150 style=\""vertical-align:middle\"">---生人""]","","",""
"","","","","","html-keyboard-response","134","290121","0.0-7.2-0.2-1.59","null","<span style='color:red; font-size: 70px;'>错误! </span>","null","","","","","","","","","","","","","","","","","","","","","","","","","feedback_test","",""
"","","","","","psychophysics","135","291876","0.0-7.2-0.2-0.60","749","","f","","","","","","","","","","","","","key","f","16.685576923076813","960","536","j","false","../../test_img/22.png","朋友","prac_matching_task","生人","[""<img src=\""../../test_img/15.png\"" width=150 style=\""vertical-align:middle\"">---朋友"",""<img src=\""../../test_img/26.png\"" width=150 style=\""vertical-align:middle\"">---自我"",""<img src=\""../../test_img/22.png\"" width=150 style=\""vertical-align:middle\"">---生人""]","","",""
"","","","","","html-keyboard-response","136","292177","0.0-7.2-0.2-1.60","null","<span style='color:red; font-size: 70px;'>错误! </span>","null","","","","","","","","","","","","","","","","","","","","","","","","","feedback_test","",""
"","","","","","psychophysics","137","294052","0.0-7.2-0.2-0.61","873","","j","","","","","","","","","","","","","key","j","16.674774774774985","960","536","f","false","../../test_img/26.png","自我","prac_matching_task","自我","[""<img src=\""../../test_img/15.png\"" width=150 style=\""vertical-align:middle\"">---朋友"",""<img src=\""../../test_img/26.png\"" width=150 style=\""vertical-align:middle\"">---自我"",""<img src=\""../../test_img/22.png\"" width=150 style=\""vertical-align:middle\"">---生人""]","","",""
"","","","","","html-keyboard-response","138","294354","0.0-7.2-0.2-1.61","null","<span style='color:red; font-size: 70px;'>错误! </span>","null","","","","","","","","","","","","","","","","","","","","","","","","","feedback_test","",""
"","","","","","psychophysics","139","296148","0.0-7.2-0.2-0.62","783","","j","","","","","","","","","","","","","key","j","16.683962264150942","960","536","j","true","../../test_img/26.png","生人","prac_matching_task","自我","[""<img src=\""../../test_img/15.png\"" width=150 style=\""vertical-align:middle\"">---朋友"",""<img src=\""../../test_img/26.png\"" width=150 style=\""vertical-align:middle\"">---自我"",""<img src=\""../../test_img/22.png\"" width=150 style=\""vertical-align:middle\"">---生人""]","","",""
"","","","","","html-keyboard-response","140","296451","0.0-7.2-0.2-1.62","null","<span style='color:GreenYellow; font-size: 70px;'>正确! </span>","null","","","","","","","","","","","","","","","","","","","","","","","","","feedback_test","",""
"","","","","","psychophysics","141","298164","0.0-7.2-0.2-0.63","710","","j","","","","","","","","","","","","","key","j","16.6851485148516","960","536","j","true","../../test_img/15.png","生人","prac_matching_task","朋友","[""<img src=\""../../test_img/15.png\"" width=150 style=\""vertical-align:middle\"">---朋友"",""<img src=\""../../test_img/26.png\"" width=150 style=\""vertical-align:middle\"">---自我"",""<img src=\""../../test_img/22.png\"" width=150 style=\""vertical-align:middle\"">---生人""]","","",""
"","","","","","html-keyboard-response","142","298464","0.0-7.2-0.2-1.63","null","<span style='color:GreenYellow; font-size: 70px;'>正确! </span>","null","","","","","","","","","","","","","","","","","","","","","","","","","feedback_test","",""
"","","","","","psychophysics","143","300220","0.0-7.2-0.2-0.64","751","","j","","","","","","","","","","","","","key","j","16.683809523809412","960","536","f","false","../../test_img/15.png","朋友","prac_matching_task","朋友","[""<img src=\""../../test_img/15.png\"" width=150 style=\""vertical-align:middle\"">---朋友"",""<img src=\""../../test_img/26.png\"" width=150 style=\""vertical-align:middle\"">---自我"",""<img src=\""../../test_img/22.png\"" width=150 style=\""vertical-align:middle\"">---生人""]","","",""
"","","","","","html-keyboard-response","144","300521","0.0-7.2-0.2-1.64","null","<span style='color:red; font-size: 70px;'>错误! </span>","null","","","","","","","","","","","","","","","","","","","","","","","","","feedback_test","",""
"","","","","","psychophysics","145","302180","0.0-7.2-0.2-0.65","659","","j","","","","","","","","","","","","","key","j","16.68061224489808","960","536","f","false","../../test_img/26.png","自我","prac_matching_task","自我","[""<img src=\""../../test_img/15.png\"" width=150 style=\""vertical-align:middle\"">---朋友"",""<img src=\""../../test_img/26.png\"" width=150 style=\""vertical-align:middle\"">---自我"",""<img src=\""../../test_img/22.png\"" width=150 style=\""vertical-align:middle\"">---生人""]","","",""
"","","","","","html-keyboard-response","146","302481","0.0-7.2-0.2-1.65","null","<span style='color:red; font-size: 70px;'>错误! </span>","null","","","","","","","","","","","","","","","","","","","","","","","","","feedback_test","",""
"","","","","","psychophysics","147","304236","0.0-7.2-0.2-0.66","751","","f","","","","","","","","","","","","","key","f","16.68365384615362","960","536","f","true","../../test_img/15.png","朋友","prac_matching_task","朋友","[""<img src=\""../../test_img/15.png\"" width=150 style=\""vertical-align:middle\"">---朋友"",""<img src=\""../../test_img/26.png\"" width=150 style=\""vertical-align:middle\"">---自我"",""<img src=\""../../test_img/22.png\"" width=150 style=\""vertical-align:middle\"">---生人""]","","",""
"","","","","","html-keyboard-response","148","304550","0.0-7.2-0.2-1.66","null","<span style='color:GreenYellow; font-size: 70px;'>正确! </span>","null","","","","","","","","","","","","","","","","","","","","","","","","","feedback_test","",""
"","","","","","psychophysics","149","306780","0.0-7.2-0.2-0.67","1221","","j","","","","","","","","","","","","","key","j","16.683458646616717","960","536","f","false","../../test_img/22.png","生人","prac_matching_task","生人","[""<img src=\""../../test_img/15.png\"" width=150 style=\""vertical-align:middle\"">---朋友"",""<img src=\""../../test_img/26.png\"" width=150 style=\""vertical-align:middle\"">---自我"",""<img src=\""../../test_img/22.png\"" width=150 style=\""vertical-align:middle\"">---生人""]","","",""
"","","","","","html-keyboard-response","150","307086","0.0-7.2-0.2-1.67","null","<span style='color:red; font-size: 70px;'>错误! </span>","null","","","","","","","","","","","","","","","","","","","","","","","","","feedback_test","",""
"","","","","","psychophysics","151","308756","0.0-7.2-0.2-0.68","662","","j","","","","","","","","","","","","","key","j","16.684848484848366","960","536","f","false","../../test_img/22.png","生人","prac_matching_task","生人","[""<img src=\""../../test_img/15.png\"" width=150 style=\""vertical-align:middle\"">---朋友"",""<img src=\""../../test_img/26.png\"" width=150 style=\""vertical-align:middle\"">---自我"",""<img src=\""../../test_img/22.png\"" width=150 style=\""vertical-align:middle\"">---生人""]","","",""
"","","","","","html-keyboard-response","152","309068","0.0-7.2-0.2-1.68","null","<span style='color:red; font-size: 70px;'>错误! </span>","null","","","","","","","","","","","","","","","","","","","","","","","","","feedback_test","",""
"","","","","","psychophysics","153","311484","0.0-7.2-0.2-0.69","1405","","j","","","","","","","","","","","","","key","j","16.683333333333092","960","536","j","true","../../test_img/22.png","自我","prac_matching_task","生人","[""<img src=\""../../test_img/15.png\"" width=150 style=\""vertical-align:middle\"">---朋友"",""<img src=\""../../test_img/26.png\"" width=150 style=\""vertical-align:middle\"">---自我"",""<img src=\""../../test_img/22.png\"" width=150 style=\""vertical-align:middle\"">---生人""]","","",""
"","","","","","html-keyboard-response","154","311784","0.0-7.2-0.2-1.69","null","<span style='color:GreenYellow; font-size: 70px;'>正确! </span>","null","","","","","","","","","","","","","","","","","","","","","","","","","feedback_test","",""
"","","","","","psychophysics","155","313844","0.0-7.2-0.2-0.70","1045","","j","","","","","","","","","","","","","key","j","16.68524590163963","960","536","j","true","../../test_img/15.png","自我","prac_matching_task","朋友","[""<img src=\""../../test_img/15.png\"" width=150 style=\""vertical-align:middle\"">---朋友"",""<img src=\""../../test_img/26.png\"" width=150 style=\""vertical-align:middle\"">---自我"",""<img src=\""../../test_img/22.png\"" width=150 style=\""vertical-align:middle\"">---生人""]","","",""
"","","","","","html-keyboard-response","156","314158","0.0-7.2-0.2-1.70","null","<span style='color:GreenYellow; font-size: 70px;'>正确! </span>","null","","","","","","","","","","","","","","","","","","","","","","","","","feedback_test","",""
"","","","","","psychophysics","157","316180","0.0-7.2-0.2-0.71","1017","","j","","","","","","","","","","","","","key","j","16.684166666666957","960","536","j","true","../../test_img/26.png","朋友","prac_matching_task","自我","[""<img src=\""../../test_img/15.png\"" width=150 style=\""vertical-align:middle\"">---朋友"",""<img src=\""../../test_img/26.png\"" width=150 style=\""vertical-align:middle\"">---自我"",""<img src=\""../../test_img/22.png\"" width=150 style=\""vertical-align:middle\"">---生人""]","","",""
"","","","","","html-keyboard-response","158","316490","0.0-7.2-0.2-1.71","null","<span style='color:GreenYellow; font-size: 70px;'>正确! </span>","null","","","","","","","","","","","","","","","","","","","","","","","","","feedback_test","",""
"","","","","","html-keyboard-response","159","318220","0.0-7.2-1.2-0.2","1729","<style>.context{color:white; font-size: 35px; line-height:40px}</style>                          <div><p class='context'>您正确回答了46% 的试次。</p ><p class='context'>您的平均反应时为826毫秒。</p >"," ","","","","","","","","","","","","","","","","","","","","","","","","","","",""
"","","","","","instructions","160","332628","0.0-7.2-1.2-1.2","14408","","","","","","","","","","","","","","[{""page_index"":0,""viewing_time"":1120},{""page_index"":1,""viewing_time"":889},{""page_index"":2,""viewing_time"":744},{""page_index"":3,""viewing_time"":11656}]","","","","","","","","","","","","","","",""
"","","","","","psychophysics","161","334356","0.0-7.3-0.3-0.72","725","","f","","","","","","","","","","","","","key","f","16.68349514563073","960","536","f","true","../../test_img/26.png","自我","prac_matching_task","自我","[""<img src=\""../../test_img/15.png\"" width=150 style=\""vertical-align:middle\"">---朋友"",""<img src=\""../../test_img/26.png\"" width=150 style=\""vertical-align:middle\"">---自我"",""<img src=\""../../test_img/22.png\"" width=150 style=\""vertical-align:middle\"">---生人""]","","",""
"","","","","","html-keyboard-response","162","334665","0.0-7.3-0.3-1.72","null","<span style='color:GreenYellow; font-size: 70px;'>正确! </span>","null","","","","","","","","","","","","","","","","","","","","","","","","","feedback_test","",""
"","","","","","psychophysics","163","336268","0.0-7.3-0.3-0.73","596","","j","","","","","","","","","","","","","key","j","16.68421052631579","960","536","j","true","../../test_img/26.png","朋友","prac_matching_task","自我","[""<img src=\""../../test_img/15.png\"" width=150 style=\""vertical-align:middle\"">---朋友"",""<img src=\""../../test_img/26.png\"" width=150 style=\""vertical-align:middle\"">---自我"",""<img src=\""../../test_img/22.png\"" width=150 style=\""vertical-align:middle\"">---生人""]","","",""
"","","","","","html-keyboard-response","164","336568","0.0-7.3-0.3-1.73","null","<span style='color:GreenYellow; font-size: 70px;'>正确! </span>","null","","","","","","","","","","","","","","","","","","","","","","","","","feedback_test","",""
"","","","","","psychophysics","165","338092","0.0-7.3-0.3-0.74","518","","j","","","","","","","","","","","","","key","j","16.682417582417326","960","536","j","true","../../test_img/22.png","自我","prac_matching_task","生人","[""<img src=\""../../test_img/15.png\"" width=150 style=\""vertical-align:middle\"">---朋友"",""<img src=\""../../test_img/26.png\"" width=150 style=\""vertical-align:middle\"">---自我"",""<img src=\""../../test_img/22.png\"" width=150 style=\""vertical-align:middle\"">---生人""]","","",""
"","","","","","html-keyboard-response","166","338394","0.0-7.3-0.3-1.74","null","<span style='color:GreenYellow; font-size: 70px;'>正确! </span>","null","","","","","","","","","","","","","","","","","","","","","","","","","feedback_test","",""
"","","","","","psychophysics","167","340036","0.0-7.3-0.3-0.75","641","","j","","","","","","","","","","","","","key","j","16.682474226804242","960","536","j","true","../../test_img/22.png","朋友","prac_matching_task","生人","[""<img src=\""../../test_img/15.png\"" width=150 style=\""vertical-align:middle\"">---朋友"",""<img src=\""../../test_img/26.png\"" width=150 style=\""vertical-align:middle\"">---自我"",""<img src=\""../../test_img/22.png\"" width=150 style=\""vertical-align:middle\"">---生人""]","","",""
"","","","","","html-keyboard-response","168","340347","0.0-7.3-0.3-1.75","null","<span style='color:GreenYellow; font-size: 70px;'>正确! </span>","null","","","","","","","","","","","","","","","","","","","","","","","","","feedback_test","",""
"","","","","","psychophysics","169","342060","0.0-7.3-0.3-0.76","712","","f","","","","","","","","","","","","","key","f","16.68415841584193","960","536","f","true","../../test_img/15.png","朋友","prac_matching_task","朋友","[""<img src=\""../../test_img/15.png\"" width=150 style=\""vertical-align:middle\"">---朋友"",""<img src=\""../../test_img/26.png\"" width=150 style=\""vertical-align:middle\"">---自我"",""<img src=\""../../test_img/22.png\"" width=150 style=\""vertical-align:middle\"">---生人""]","","",""
"","","","","","html-keyboard-response","170","342361","0.0-7.3-0.3-1.76","null","<span style='color:GreenYellow; font-size: 70px;'>正确! </span>","null","","","","","","","","","","","","","","","","","","","","","","","","","feedback_test","",""
"","","","","","psychophysics","171","343925","0.0-7.3-0.3-0.77","562","","j","","","","","","","","","","","","","key","j","16.676086956521864","960","536","j","true","../../test_img/26.png","生人","prac_matching_task","自我","[""<img src=\""../../test_img/15.png\"" width=150 style=\""vertical-align:middle\"">---朋友"",""<img src=\""../../test_img/26.png\"" width=150 style=\""vertical-align:middle\"">---自我"",""<img src=\""../../test_img/22.png\"" width=150 style=\""vertical-align:middle\"">---生人""]","","",""
"","","","","","html-keyboard-response","172","344225","0.0-7.3-0.3-1.77","null","<span style='color:GreenYellow; font-size: 70px;'>正确! </span>","null","","","","","","","","","","","","","","","","","","","","","","","","","feedback_test","",""
"","","","","","psychophysics","173","346028","0.0-7.3-0.3-0.78","796","","f","","","","","","","","","","","","","key","f","16.68411214953282","960","536","f","true","../../test_img/22.png","生人","prac_matching_task","生人","[""<img src=\""../../test_img/15.png\"" width=150 style=\""vertical-align:middle\"">---朋友"",""<img src=\""../../test_img/26.png\"" width=150 style=\""vertical-align:middle\"">---自我"",""<img src=\""../../test_img/22.png\"" width=150 style=\""vertical-align:middle\"">---生人""]","","",""
"","","","","","html-keyboard-response","174","346341","0.0-7.3-0.3-1.78","null","<span style='color:GreenYellow; font-size: 70px;'>正确! </span>","null","","","","","","","","","","","","","","","","","","","","","","","","","feedback_test","",""
"","","","","","psychophysics","175","348220","0.0-7.3-0.3-0.79","874","","f","","","","","","","","","","","","","key","f","16.68571428571418","960","536","f","true","../../test_img/26.png","自我","prac_matching_task","自我","[""<img src=\""../../test_img/15.png\"" width=150 style=\""vertical-align:middle\"">---朋友"",""<img src=\""../../test_img/26.png\"" width=150 style=\""vertical-align:middle\"">---自我"",""<img src=\""../../test_img/22.png\"" width=150 style=\""vertical-align:middle\"">---生人""]","","",""
"","","","","","html-keyboard-response","176","348520","0.0-7.3-0.3-1.79","null","<span style='color:GreenYellow; font-size: 70px;'>正确! </span>","null","","","","","","","","","","","","","","","","","","","","","","","","","feedback_test","",""
"","","","","","psychophysics","177","350324","0.0-7.3-0.3-0.80","792","","j","","","","","","","","","","","","","key","j","16.68317757009324","960","536","f","false","../../test_img/22.png","生人","prac_matching_task","生人","[""<img src=\""../../test_img/15.png\"" width=150 style=\""vertical-align:middle\"">---朋友"",""<img src=\""../../test_img/26.png\"" width=150 style=\""vertical-align:middle\"">---自我"",""<img src=\""../../test_img/22.png\"" width=150 style=\""vertical-align:middle\"">---生人""]","","",""
"","","","","","html-keyboard-response","178","350629","0.0-7.3-0.3-1.80","null","<span style='color:red; font-size: 70px;'>错误! </span>","null","","","","","","","","","","","","","","","","","","","","","","","","","feedback_test","",""
"","","","","","psychophysics","179","352180","0.0-7.3-0.3-0.81","551","","f","","","","","","","","","","","","","key","f","16.683695652174166","960","536","f","true","../../test_img/15.png","朋友","prac_matching_task","朋友","[""<img src=\""../../test_img/15.png\"" width=150 style=\""vertical-align:middle\"">---朋友"",""<img src=\""../../test_img/26.png\"" width=150 style=\""vertical-align:middle\"">---自我"",""<img src=\""../../test_img/22.png\"" width=150 style=\""vertical-align:middle\"">---生人""]","","",""
"","","","","","html-keyboard-response","180","352492","0.0-7.3-0.3-1.81","null","<span style='color:GreenYellow; font-size: 70px;'>正确! </span>","null","","","","","","","","","","","","","","","","","","","","","","","","","feedback_test","",""
"","","","","","psychophysics","181","354133","0.0-7.3-0.3-0.82","639","","j","","","","","","","","","","","","","key","j","16.683505154639654","960","536","j","true","../../test_img/15.png","生人","prac_matching_task","朋友","[""<img src=\""../../test_img/15.png\"" width=150 style=\""vertical-align:middle\"">---朋友"",""<img src=\""../../test_img/26.png\"" width=150 style=\""vertical-align:middle\"">---自我"",""<img src=\""../../test_img/22.png\"" width=150 style=\""vertical-align:middle\"">---生人""]","","",""
"","","","","","html-keyboard-response","182","354449","0.0-7.3-0.3-1.82","null","<span style='color:GreenYellow; font-size: 70px;'>正确! </span>","null","","","","","","","","","","","","","","","","","","","","","","","","","feedback_test","",""
"","","","","","psychophysics","183","356108","0.0-7.3-0.3-0.83","650","","j","","","","","","","","","","","","","key","j","16.683673469387756","960","536","j","true","../../test_img/15.png","自我","prac_matching_task","朋友","[""<img src=\""../../test_img/15.png\"" width=150 style=\""vertical-align:middle\"">---朋友"",""<img src=\""../../test_img/26.png\"" width=150 style=\""vertical-align:middle\"">---自我"",""<img src=\""../../test_img/22.png\"" width=150 style=\""vertical-align:middle\"">---生人""]","","",""
"","","","","","html-keyboard-response","184","356415","0.0-7.3-0.3-1.83","null","<span style='color:GreenYellow; font-size: 70px;'>正确! </span>","null","","","","","","","","","","","","","","","","","","","","","","","","","feedback_test","",""
"","","","","","psychophysics","185","358268","0.0-7.3-0.3-0.84","841","","j","","","","","","","","","","","","","key","j","16.685454545454228","960","536","f","false","../../test_img/22.png","生人","prac_matching_task","生人","[""<img src=\""../../test_img/15.png\"" width=150 style=\""vertical-align:middle\"">---朋友"",""<img src=\""../../test_img/26.png\"" width=150 style=\""vertical-align:middle\"">---自我"",""<img src=\""../../test_img/22.png\"" width=150 style=\""vertical-align:middle\"">---生人""]","","",""
"","","","","","html-keyboard-response","186","358571","0.0-7.3-0.3-1.84","null","<span style='color:red; font-size: 70px;'>错误! </span>","null","","","","","","","","","","","","","","","","","","","","","","","","","feedback_test","",""
"","","","","","psychophysics","187","360252","0.0-7.3-0.3-0.85","677","","j","","","","","","","","","","","","","key","j","16.685","960","536","j","true","../../test_img/26.png","生人","prac_matching_task","自我","[""<img src=\""../../test_img/15.png\"" width=150 style=\""vertical-align:middle\"">---朋友"",""<img src=\""../../test_img/26.png\"" width=150 style=\""vertical-align:middle\"">---自我"",""<img src=\""../../test_img/22.png\"" width=150 style=\""vertical-align:middle\"">---生人""]","","",""
"","","","","","html-keyboard-response","188","360553","0.0-7.3-0.3-1.85","null","<span style='color:GreenYellow; font-size: 70px;'>正确! </span>","null","","","","","","","","","","","","","","","","","","","","","","","","","feedback_test","",""
"","","","","","psychophysics","189","362412","0.0-7.3-0.3-0.86","855","","j","","","","","","","","","","","","","key","j","16.68363636363647","960","536","j","true","../../test_img/22.png","自我","prac_matching_task","生人","[""<img src=\""../../test_img/15.png\"" width=150 style=\""vertical-align:middle\"">---朋友"",""<img src=\""../../test_img/26.png\"" width=150 style=\""vertical-align:middle\"">---自我"",""<img src=\""../../test_img/22.png\"" width=150 style=\""vertical-align:middle\"">---生人""]","","",""
"","","","","","html-keyboard-response","190","362714","0.0-7.3-0.3-1.86","null","<span style='color:GreenYellow; font-size: 70px;'>正确! </span>","null","","","","","","","","","","","","","","","","","","","","","","","","","feedback_test","",""
"","","","","","psychophysics","191","364501","0.0-7.3-0.3-0.87","784","","f","","","","","","","","","","","","","key","f","16.683018867924197","960","536","f","true","../../test_img/26.png","自我","prac_matching_task","自我","[""<img src=\""../../test_img/15.png\"" width=150 style=\""vertical-align:middle\"">---朋友"",""<img src=\""../../test_img/26.png\"" width=150 style=\""vertical-align:middle\"">---自我"",""<img src=\""../../test_img/22.png\"" width=150 style=\""vertical-align:middle\"">---生人""]","","",""
"","","","","","html-keyboard-response","192","364803","0.0-7.3-0.3-1.87","null","<span style='color:GreenYellow; font-size: 70px;'>正确! </span>","null","","","","","","","","","","","","","","","","","","","","","","","","","feedback_test","",""
"","","","","","psychophysics","193","366476","0.0-7.3-0.3-0.88","658","","f","","","","","","","","","","","","","key","f","16.683838383838502","960","536","f","true","../../test_img/26.png","自我","prac_matching_task","自我","[""<img src=\""../../test_img/15.png\"" width=150 style=\""vertical-align:middle\"">---朋友"",""<img src=\""../../test_img/26.png\"" width=150 style=\""vertical-align:middle\"">---自我"",""<img src=\""../../test_img/22.png\"" width=150 style=\""vertical-align:middle\"">---生人""]","","",""
"","","","","","html-keyboard-response","194","366776","0.0-7.3-0.3-1.88","null","<span style='color:GreenYellow; font-size: 70px;'>正确! </span>","null","","","","","","","","","","","","","","","","","","","","","","","","","feedback_test","",""
"","","","","","psychophysics","195","368164","0.0-7.3-0.3-0.89","378","","f","","","","","","","","","","","","","key","f","16.68414634146384","960","536","j","false","../../test_img/15.png","自我","prac_matching_task","朋友","[""<img src=\""../../test_img/15.png\"" width=150 style=\""vertical-align:middle\"">---朋友"",""<img src=\""../../test_img/26.png\"" width=150 style=\""vertical-align:middle\"">---自我"",""<img src=\""../../test_img/22.png\"" width=150 style=\""vertical-align:middle\"">---生人""]","","",""
"","","","","","html-keyboard-response","196","368465","0.0-7.3-0.3-1.89","null","<span style='color:red; font-size: 70px;'>错误! </span>","null","","","","","","","","","","","","","","","","","","","","","","","","","feedback_test","",""
"","","","","","psychophysics","197","370084","0.0-7.3-0.3-0.90","612","","j","","","","","","","","","","","","","key","j","16.683333333333092","960","536","j","true","../../test_img/15.png","生人","prac_matching_task","朋友","[""<img src=\""../../test_img/15.png\"" width=150 style=\""vertical-align:middle\"">---朋友"",""<img src=\""../../test_img/26.png\"" width=150 style=\""vertical-align:middle\"">---自我"",""<img src=\""../../test_img/22.png\"" width=150 style=\""vertical-align:middle\"">---生人""]","","",""
"","","","","","html-keyboard-response","198","370389","0.0-7.3-0.3-1.90","null","<span style='color:GreenYellow; font-size: 70px;'>正确! </span>","null","","","","","","","","","","","","","","","","","","","","","","","","","feedback_test","",""
"","","","","","psychophysics","199","372012","0.0-7.3-0.3-0.91","621","","j","","","","","","","","","","","","","key","j","16.684374999999516","960","536","j","true","../../test_img/26.png","朋友","prac_matching_task","自我","[""<img src=\""../../test_img/15.png\"" width=150 style=\""vertical-align:middle\"">---朋友"",""<img src=\""../../test_img/26.png\"" width=150 style=\""vertical-align:middle\"">---自我"",""<img src=\""../../test_img/22.png\"" width=150 style=\""vertical-align:middle\"">---生人""]","","",""
"","","","","","html-keyboard-response","200","372313","0.0-7.3-0.3-1.91","null","<span style='color:GreenYellow; font-size: 70px;'>正确! </span>","null","","","","","","","","","","","","","","","","","","","","","","","","","feedback_test","",""
"","","","","","psychophysics","201","373972","0.0-7.3-0.3-0.92","646","","j","","","","","","","","","","","","","key","j","16.683673469387756","960","536","f","false","../../test_img/15.png","朋友","prac_matching_task","朋友","[""<img src=\""../../test_img/15.png\"" width=150 style=\""vertical-align:middle\"">---朋友"",""<img src=\""../../test_img/26.png\"" width=150 style=\""vertical-align:middle\"">---自我"",""<img src=\""../../test_img/22.png\"" width=150 style=\""vertical-align:middle\"">---生人""]","","",""
"","","","","","html-keyboard-response","202","374280","0.0-7.3-0.3-1.92","null","<span style='color:red; font-size: 70px;'>错误! </span>","null","","","","","","","","","","","","","","","","","","","","","","","","","feedback_test","",""
"","","","","","psychophysics","203","375853","0.0-7.3-0.3-0.93","571","","j","","","","","","","","","","","","","key","j","16.681720430107777","960","536","f","false","../../test_img/22.png","生人","prac_matching_task","生人","[""<img src=\""../../test_img/15.png\"" width=150 style=\""vertical-align:middle\"">---朋友"",""<img src=\""../../test_img/26.png\"" width=150 style=\""vertical-align:middle\"">---自我"",""<img src=\""../../test_img/22.png\"" width=150 style=\""vertical-align:middle\"">---生人""]","","",""
"","","","","","html-keyboard-response","204","376163","0.0-7.3-0.3-1.93","null","<span style='color:red; font-size: 70px;'>错误! </span>","null","","","","","","","","","","","","","","","","","","","","","","","","","feedback_test","",""
"","","","","","psychophysics","205","377940","0.0-7.3-0.3-0.94","763","","f","","","","","","","","","","","","","key","f","16.68190476190454","960","536","j","false","../../test_img/22.png","朋友","prac_matching_task","生人","[""<img src=\""../../test_img/15.png\"" width=150 style=\""vertical-align:middle\"">---朋友"",""<img src=\""../../test_img/26.png\"" width=150 style=\""vertical-align:middle\"">---自我"",""<img src=\""../../test_img/22.png\"" width=150 style=\""vertical-align:middle\"">---生人""]","","",""
"","","","","","html-keyboard-response","206","378242","0.0-7.3-0.3-1.94","null","<span style='color:red; font-size: 70px;'>错误! </span>","null","","","","","","","","","","","","","","","","","","","","","","","","","feedback_test","",""
"","","","","","psychophysics","207","380117","0.0-7.3-0.3-0.95","872","","f","","","","","","","","","","","","","key","f","16.683928571428883","960","536","f","true","../../test_img/15.png","朋友","prac_matching_task","朋友","[""<img src=\""../../test_img/15.png\"" width=150 style=\""vertical-align:middle\"">---朋友"",""<img src=\""../../test_img/26.png\"" width=150 style=\""vertical-align:middle\"">---自我"",""<img src=\""../../test_img/22.png\"" width=150 style=\""vertical-align:middle\"">---生人""]","","",""
"","","","","","html-keyboard-response","208","380429","0.0-7.3-0.3-1.95","null","<span style='color:GreenYellow; font-size: 70px;'>正确! </span>","null","","","","","","","","","","","","","","","","","","","","","","","","","feedback_test","",""
"","","","","","html-keyboard-response","209","394941","0.0-8.0","14511","<style>.context{color:white; font-size: 35px; line-height:40px}</style>                          <div><p class='context'>您正确回答了75% 的试次。</p ><p class='context'>您的平均反应时为686毫秒。</p ><p class='context'>恭喜您完成练习。按任意键进入知觉匹配任务正式实验。</p ><p style = 'color:lightgreen; font-size: 35px;' >正式实验与练习要求相同，请您尽可能又快又准地进行按键反应</p><p class='footer' style='font-size: 22px; line-height:40px;'>在实验过程中请将您分别将<span style='color: lightgreen;'>左手和右手的食指</span>放在电脑键盘的相应键位上进行按键。</p >"," ","","","","","","","","","","","","","","","","","","","","","","","","","","",""
"","","","","","psychophysics","210","397446","0.0-9.0-0.0-0.0-0.0-0.0","null","","null","","","","","","","","","","","","","key","null","16.68389261744943","960","536","j","false","../../test_img/15.png","生人","matching_task","朋友","[""<img src=\""../../test_img/15.png\"" width=150 style=\""vertical-align:middle\"">---朋友"",""<img src=\""../../test_img/26.png\"" width=150 style=\""vertical-align:middle\"">---自我"",""<img src=\""../../test_img/22.png\"" width=150 style=\""vertical-align:middle\"">---生人""]","","",""
"","","","","","html-keyboard-response","211","397962","0.0-9.0-0.0-0.0-0.0-1.0","null","<span class='add_' style='color:yellow; font-size: 70px;'> 太慢! </span>","null","","","","","","","","","","","","","","","","","","","","","","","","","feedback_test","",""
"","","","","","psychophysics","212","399492","0.0-9.0-0.0-0.0-0.0-0.1","529","","f","","","","","","","","","","","","","key","f","16.683516483515973","960","536","f","true","../../test_img/26.png","自我","matching_task","自我","[""<img src=\""../../test_img/15.png\"" width=150 style=\""vertical-align:middle\"">---朋友"",""<img src=\""../../test_img/26.png\"" width=150 style=\""vertical-align:middle\"">---自我"",""<img src=\""../../test_img/22.png\"" width=150 style=\""vertical-align:middle\"">---生人""]","","",""
"","","","","","html-keyboard-response","213","399996","0.0-9.0-0.0-0.0-0.0-1.1","null","<span style='color:GreenYellow; font-size: 70px;'>正确! </span>","null","","","","","","","","","","","","","","","","","","","","","","","","","feedback_test","",""
"","","","","","psychophysics","214","401532","0.0-9.0-0.0-0.0-0.0-0.2","533","","j","","","","","","","","","","","","","key","j","16.684615384615256","960","536","j","true","../../test_img/22.png","朋友","matching_task","生人","[""<img src=\""../../test_img/15.png\"" width=150 style=\""vertical-align:middle\"">---朋友"",""<img src=\""../../test_img/26.png\"" width=150 style=\""vertical-align:middle\"">---自我"",""<img src=\""../../test_img/22.png\"" width=150 style=\""vertical-align:middle\"">---生人""]","","",""
"","","","","","html-keyboard-response","215","402033","0.0-9.0-0.0-0.0-0.0-1.2","null","<span style='color:GreenYellow; font-size: 70px;'>正确! </span>","null","","","","","","","","","","","","","","","","","","","","","","","","","feedback_test","",""
"","","","","","psychophysics","216","403524","0.0-9.0-0.0-0.0-0.0-0.3","488","","j","","","","","","","","","","","","","key","j","16.685393258426966","960","536","j","true","../../test_img/26.png","朋友","matching_task","自我","[""<img src=\""../../test_img/15.png\"" width=150 style=\""vertical-align:middle\"">---朋友"",""<img src=\""../../test_img/26.png\"" width=150 style=\""vertical-align:middle\"">---自我"",""<img src=\""../../test_img/22.png\"" width=150 style=\""vertical-align:middle\"">---生人""]","","",""
"","","","","","html-keyboard-response","217","404038","0.0-9.0-0.0-0.0-0.0-1.3","null","<span style='color:GreenYellow; font-size: 70px;'>正确! </span>","null","","","","","","","","","","","","","","","","","","","","","","","","","feedback_test","",""
"","","","","","psychophysics","218","405540","0.0-9.0-0.0-0.0-0.0-0.4","499","","f","","","","","","","","","","","","","key","f","16.685393258426966","960","536","f","true","../../test_img/15.png","朋友","matching_task","朋友","[""<img src=\""../../test_img/15.png\"" width=150 style=\""vertical-align:middle\"">---朋友"",""<img src=\""../../test_img/26.png\"" width=150 style=\""vertical-align:middle\"">---自我"",""<img src=\""../../test_img/22.png\"" width=150 style=\""vertical-align:middle\"">---生人""]","","",""
"","","","","","html-keyboard-response","219","406044","0.0-9.0-0.0-0.0-0.0-1.4","null","<span style='color:GreenYellow; font-size: 70px;'>正确! </span>","null","","","","","","","","","","","","","","","","","","","","","","","","","feedback_test","",""
"","","","","","psychophysics","220","407572","0.0-9.0-0.0-0.0-0.0-0.5","528","","j","","","","","","","","","","","","","key","j","16.683333333333334","960","536","f","false","../../test_img/22.png","生人","matching_task","生人","[""<img src=\""../../test_img/15.png\"" width=150 style=\""vertical-align:middle\"">---朋友"",""<img src=\""../../test_img/26.png\"" width=150 style=\""vertical-align:middle\"">---自我"",""<img src=\""../../test_img/22.png\"" width=150 style=\""vertical-align:middle\"">---生人""]","","",""
"","","","","","html-keyboard-response","221","408075","0.0-9.0-0.0-0.0-0.0-1.5","null","<span style='color:red; font-size: 70px;'>错误! </span>","null","","","","","","","","","","","","","","","","","","","","","","","","","feedback_test","",""
"","","","","","psychophysics","222","409580","0.0-9.0-0.0-0.0-0.0-0.6","501","","f","","","","","","","","","","","","","key","f","16.683333333333334","960","536","f","true","../../test_img/26.png","自我","matching_task","自我","[""<img src=\""../../test_img/15.png\"" width=150 style=\""vertical-align:middle\"">---朋友"",""<img src=\""../../test_img/26.png\"" width=150 style=\""vertical-align:middle\"">---自我"",""<img src=\""../../test_img/22.png\"" width=150 style=\""vertical-align:middle\"">---生人""]","","",""
"","","","","","html-keyboard-response","223","410091","0.0-9.0-0.0-0.0-0.0-1.6","null","<span style='color:GreenYellow; font-size: 70px;'>正确! </span>","null","","","","","","","","","","","","","","","","","","","","","","","","","feedback_test","",""
"","","","","","psychophysics","224","411628","0.0-9.0-0.0-0.0-0.0-0.7","530","","j","","","","","","","","","","","","","key","j","16.685714285713903","960","536","f","false","../../test_img/22.png","生人","matching_task","生人","[""<img src=\""../../test_img/15.png\"" width=150 style=\""vertical-align:middle\"">---朋友"",""<img src=\""../../test_img/26.png\"" width=150 style=\""vertical-align:middle\"">---自我"",""<img src=\""../../test_img/22.png\"" width=150 style=\""vertical-align:middle\"">---生人""]","","",""
"","","","","","html-keyboard-response","225","412129","0.0-9.0-0.0-0.0-0.0-1.7","null","<span style='color:red; font-size: 70px;'>错误! </span>","null","","","","","","","","","","","","","","","","","","","","","","","","","feedback_test","",""
"","","","","","psychophysics","226","413716","0.0-9.0-0.0-0.0-0.0-0.8","583","","f","","","","","","","","","","","","","key","f","16.684042553191986","960","536","f","true","../../test_img/15.png","朋友","matching_task","朋友","[""<img src=\""../../test_img/15.png\"" width=150 style=\""vertical-align:middle\"">---朋友"",""<img src=\""../../test_img/26.png\"" width=150 style=\""vertical-align:middle\"">---自我"",""<img src=\""../../test_img/22.png\"" width=150 style=\""vertical-align:middle\"">---生人""]","","",""
"","","","","","html-keyboard-response","227","414217","0.0-9.0-0.0-0.0-0.0-1.8","null","<span style='color:GreenYellow; font-size: 70px;'>正确! </span>","null","","","","","","","","","","","","","","","","","","","","","","","","","feedback_test","",""
"","","","","","psychophysics","228","415669","0.0-9.0-0.0-0.0-0.0-0.9","451","","f","","","","","","","","","","","","","key","f","16.684883720930504","960","536","j","false","../../test_img/15.png","自我","matching_task","朋友","[""<img src=\""../../test_img/15.png\"" width=150 style=\""vertical-align:middle\"">---朋友"",""<img src=\""../../test_img/26.png\"" width=150 style=\""vertical-align:middle\"">---自我"",""<img src=\""../../test_img/22.png\"" width=150 style=\""vertical-align:middle\"">---生人""]","","",""
"","","","","","html-keyboard-response","229","416170","0.0-9.0-0.0-0.0-0.0-1.9","null","<span style='color:red; font-size: 70px;'>错误! </span>","null","","","","","","","","","","","","","","","","","","","","","","","","","feedback_test","",""
"","","","","","psychophysics","230","417820","0.0-9.0-0.0-0.0-0.0-0.10","649","","j","","","","","","","","","","","","","key","j","16.683505154639054","960","536","j","true","../../test_img/22.png","自我","matching_task","生人","[""<img src=\""../../test_img/15.png\"" width=150 style=\""vertical-align:middle\"">---朋友"",""<img src=\""../../test_img/26.png\"" width=150 style=\""vertical-align:middle\"">---自我"",""<img src=\""../../test_img/22.png\"" width=150 style=\""vertical-align:middle\"">---生人""]","","",""
"","","","","","html-keyboard-response","231","418331","0.0-9.0-0.0-0.0-0.0-1.10","null","<span style='color:GreenYellow; font-size: 70px;'>正确! </span>","null","","","","","","","","","","","","","","","","","","","","","","","","","feedback_test","",""
"","","","","","psychophysics","232","420124","0.0-9.0-0.0-0.0-0.0-0.11","788","","j","","","","","","","","","","","","","key","j","16.68411214953282","960","536","j","true","../../test_img/26.png","生人","matching_task","自我","[""<img src=\""../../test_img/15.png\"" width=150 style=\""vertical-align:middle\"">---朋友"",""<img src=\""../../test_img/26.png\"" width=150 style=\""vertical-align:middle\"">---自我"",""<img src=\""../../test_img/22.png\"" width=150 style=\""vertical-align:middle\"">---生人""]","","",""
"","","","","","html-keyboard-response","233","420634","0.0-9.0-0.0-0.0-0.0-1.11","null","<span style='color:GreenYellow; font-size: 70px;'>正确! </span>","null","","","","","","","","","","","","","","","","","","","","","","","","","feedback_test","",""
"","","","","","psychophysics","234","422116","0.0-9.0-0.0-0.0-0.0-0.12","475","","f","","","","","","","","","","","","","key","f","16.68295454545428","960","536","f","true","../../test_img/26.png","自我","matching_task","自我","[""<img src=\""../../test_img/15.png\"" width=150 style=\""vertical-align:middle\"">---朋友"",""<img src=\""../../test_img/26.png\"" width=150 style=\""vertical-align:middle\"">---自我"",""<img src=\""../../test_img/22.png\"" width=150 style=\""vertical-align:middle\"">---生人""]","","",""
"","","","","","html-keyboard-response","235","422616","0.0-9.0-0.0-0.0-0.0-1.12","null","<span style='color:GreenYellow; font-size: 70px;'>正确! </span>","null","","","","","","","","","","","","","","","","","","","","","","","","","feedback_test","",""
"","","","","","psychophysics","236","424260","0.0-9.0-0.0-0.0-0.0-0.13","633","","j","","","","","","","","","","","","","key","j","16.685567010309278","960","536","j","true","../../test_img/22.png","自我","matching_task","生人","[""<img src=\""../../test_img/15.png\"" width=150 style=\""vertical-align:middle\"">---朋友"",""<img src=\""../../test_img/26.png\"" width=150 style=\""vertical-align:middle\"">---自我"",""<img src=\""../../test_img/22.png\"" width=150 style=\""vertical-align:middle\"">---生人""]","","",""
"","","","","","html-keyboard-response","237","424770","0.0-9.0-0.0-0.0-0.0-1.13","null","<span style='color:GreenYellow; font-size: 70px;'>正确! </span>","null","","","","","","","","","","","","","","","","","","","","","","","","","feedback_test","",""
"","","","","","psychophysics","238","426525","0.0-9.0-0.0-0.0-0.0-0.14","746","","j","","","","","","","","","","","","","key","j","16.683653846154183","960","536","j","true","../../test_img/22.png","朋友","matching_task","生人","[""<img src=\""../../test_img/15.png\"" width=150 style=\""vertical-align:middle\"">---朋友"",""<img src=\""../../test_img/26.png\"" width=150 style=\""vertical-align:middle\"">---自我"",""<img src=\""../../test_img/22.png\"" width=150 style=\""vertical-align:middle\"">---生人""]","","",""
"","","","","","html-keyboard-response","239","427026","0.0-9.0-0.0-0.0-0.0-1.14","null","<span style='color:GreenYellow; font-size: 70px;'>正确! </span>","null","","","","","","","","","","","","","","","","","","","","","","","","","feedback_test","",""
"","","","","","psychophysics","240","428652","0.0-9.0-0.0-0.0-0.0-0.15","621","","f","","","","","","","","","","","","","key","f","16.684536082473866","960","536","j","false","../../test_img/26.png","朋友","matching_task","自我","[""<img src=\""../../test_img/15.png\"" width=150 style=\""vertical-align:middle\"">---朋友"",""<img src=\""../../test_img/26.png\"" width=150 style=\""vertical-align:middle\"">---自我"",""<img src=\""../../test_img/22.png\"" width=150 style=\""vertical-align:middle\"">---生人""]","","",""
"","","","","","html-keyboard-response","241","429152","0.0-9.0-0.0-0.0-0.0-1.15","null","<span style='color:red; font-size: 70px;'>错误! </span>","null","","","","","","","","","","","","","","","","","","","","","","","","","feedback_test","",""
"","","","","","psychophysics","242","430884","0.0-9.0-0.0-0.0-0.0-0.16","729","","f","","","","","","","","","","","","","key","f","16.682524271844546","960","536","j","false","../../test_img/15.png","自我","matching_task","朋友","[""<img src=\""../../test_img/15.png\"" width=150 style=\""vertical-align:middle\"">---朋友"",""<img src=\""../../test_img/26.png\"" width=150 style=\""vertical-align:middle\"">---自我"",""<img src=\""../../test_img/22.png\"" width=150 style=\""vertical-align:middle\"">---生人""]","","",""
"","","","","","html-keyboard-response","243","431386","0.0-9.0-0.0-0.0-0.0-1.16","null","<span style='color:red; font-size: 70px;'>错误! </span>","null","","","","","","","","","","","","","","","","","","","","","","","","","feedback_test","",""
"","","","","","psychophysics","244","433148","0.0-9.0-0.0-0.0-0.0-0.17","753","","j","","","","","","","","","","","","","key","j","16.682692307692307","960","536","f","false","../../test_img/26.png","自我","matching_task","自我","[""<img src=\""../../test_img/15.png\"" width=150 style=\""vertical-align:middle\"">---朋友"",""<img src=\""../../test_img/26.png\"" width=150 style=\""vertical-align:middle\"">---自我"",""<img src=\""../../test_img/22.png\"" width=150 style=\""vertical-align:middle\"">---生人""]","","",""
"","","","","","html-keyboard-response","245","433648","0.0-9.0-0.0-0.0-0.0-1.17","null","<span style='color:red; font-size: 70px;'>错误! </span>","null","","","","","","","","","","","","","","","","","","","","","","","","","feedback_test","",""
"","","","","","psychophysics","246","435388","0.0-9.0-0.0-0.0-0.0-0.18","736","","f","","","","","","","","","","","","","key","f","16.684466019417474","960","536","f","true","../../test_img/15.png","朋友","matching_task","朋友","[""<img src=\""../../test_img/15.png\"" width=150 style=\""vertical-align:middle\"">---朋友"",""<img src=\""../../test_img/26.png\"" width=150 style=\""vertical-align:middle\"">---自我"",""<img src=\""../../test_img/22.png\"" width=150 style=\""vertical-align:middle\"">---生人""]","","",""
"","","","","","html-keyboard-response","247","435888","0.0-9.0-0.0-0.0-0.0-1.18","null","<span style='color:GreenYellow; font-size: 70px;'>正确! </span>","null","","","","","","","","","","","","","","","","","","","","","","","","","feedback_test","",""
"","","","","","psychophysics","248","437836","0.0-9.0-0.0-0.0-0.0-0.19","947","","j","","","","","","","","","","","","","key","j","16.679130434782405","960","536","j","true","../../test_img/26.png","生人","matching_task","自我","[""<img src=\""../../test_img/15.png\"" width=150 style=\""vertical-align:middle\"">---朋友"",""<img src=\""../../test_img/26.png\"" width=150 style=\""vertical-align:middle\"">---自我"",""<img src=\""../../test_img/22.png\"" width=150 style=\""vertical-align:middle\"">---生人""]","","",""
"","","","","","html-keyboard-response","249","438342","0.0-9.0-0.0-0.0-0.0-1.19","null","<span style='color:GreenYellow; font-size: 70px;'>正确! </span>","null","","","","","","","","","","","","","","","","","","","","","","","","","feedback_test","",""
"","","","","","psychophysics","250","439909","0.0-9.0-0.0-0.0-0.0-0.20","566","","f","","","","","","","","","","","","","key","f","16.683695652174166","960","536","f","true","../../test_img/15.png","朋友","matching_task","朋友","[""<img src=\""../../test_img/15.png\"" width=150 style=\""vertical-align:middle\"">---朋友"",""<img src=\""../../test_img/26.png\"" width=150 style=\""vertical-align:middle\"">---自我"",""<img src=\""../../test_img/22.png\"" width=150 style=\""vertical-align:middle\"">---生人""]","","",""
"","","","","","html-keyboard-response","251","440410","0.0-9.0-0.0-0.0-0.0-1.20","null","<span style='color:GreenYellow; font-size: 70px;'>正确! </span>","null","","","","","","","","","","","","","","","","","","","","","","","","","feedback_test","",""
"","","","","","psychophysics","252","442308","0.0-9.0-0.0-0.0-0.0-0.21","897","","j","","","","","","","","","","","","","key","j","16.674107142857142","960","536","j","true","../../test_img/15.png","生人","matching_task","朋友","[""<img src=\""../../test_img/15.png\"" width=150 style=\""vertical-align:middle\"">---朋友"",""<img src=\""../../test_img/26.png\"" width=150 style=\""vertical-align:middle\"">---自我"",""<img src=\""../../test_img/22.png\"" width=150 style=\""vertical-align:middle\"">---生人""]","","",""
"","","","","","html-keyboard-response","253","442822","0.0-9.0-0.0-0.0-0.0-1.21","null","<span style='color:GreenYellow; font-size: 70px;'>正确! </span>","null","","","","","","","","","","","","","","","","","","","","","","","","","feedback_test","",""
"","","","","","psychophysics","254","444428","0.0-9.0-0.0-0.0-0.0-0.22","598","","j","","","","","","","","","","","","","key","j","16.68421052631579","960","536","f","false","../../test_img/22.png","生人","matching_task","生人","[""<img src=\""../../test_img/15.png\"" width=150 style=\""vertical-align:middle\"">---朋友"",""<img src=\""../../test_img/26.png\"" width=150 style=\""vertical-align:middle\"">---自我"",""<img src=\""../../test_img/22.png\"" width=150 style=\""vertical-align:middle\"">---生人""]","","",""
"","","","","","html-keyboard-response","255","444933","0.0-9.0-0.0-0.0-0.0-1.22","null","<span style='color:red; font-size: 70px;'>错误! </span>","null","","","","","","","","","","","","","","","","","","","","","","","","","feedback_test","",""
"","","","","","psychophysics","256","446532","0.0-9.0-0.0-0.0-0.0-0.23","585","","f","","","","","","","","","","","","","key","f","16.68297872340438","960","536","f","true","../../test_img/22.png","生人","matching_task","生人","[""<img src=\""../../test_img/15.png\"" width=150 style=\""vertical-align:middle\"">---朋友"",""<img src=\""../../test_img/26.png\"" width=150 style=\""vertical-align:middle\"">---自我"",""<img src=\""../../test_img/22.png\"" width=150 style=\""vertical-align:middle\"">---生人""]","","",""
"","","","","","html-keyboard-response","257","447032","0.0-9.0-0.0-0.0-0.0-1.23","null","<span style='color:GreenYellow; font-size: 70px;'>正确! </span>","null","","","","","","","","","","","","","","","","","","","","","","","","","feedback_test","",""
"","","","","","psychophysics","258","448885","0.0-9.0-0.0-0.0-0.0-0.24","850","","f","","","","","","","","","","","","","key","f","16.679816513761253","960","536","f","true","../../test_img/26.png","自我","matching_task","自我","[""<img src=\""../../test_img/15.png\"" width=150 style=\""vertical-align:middle\"">---朋友"",""<img src=\""../../test_img/26.png\"" width=150 style=\""vertical-align:middle\"">---自我"",""<img src=\""../../test_img/22.png\"" width=150 style=\""vertical-align:middle\"">---生人""]","","",""
"","","","","","html-keyboard-response","259","449391","0.0-9.0-0.0-0.0-0.0-1.24","null","<span style='color:GreenYellow; font-size: 70px;'>正确! </span>","null","","","","","","","","","","","","","","","","","","","","","","","","","feedback_test","",""
"","","","","","psychophysics","260","451300","0.0-9.0-0.0-0.0-0.0-0.25","905","","f","","","","","","","","","","","","","key","f","16.684070796460073","960","536","f","true","../../test_img/22.png","生人","matching_task","生人","[""<img src=\""../../test_img/15.png\"" width=150 style=\""vertical-align:middle\"">---朋友"",""<img src=\""../../test_img/26.png\"" width=150 style=\""vertical-align:middle\"">---自我"",""<img src=\""../../test_img/22.png\"" width=150 style=\""vertical-align:middle\"">---生人""]","","",""
"","","","","","html-keyboard-response","261","451801","0.0-9.0-0.0-0.0-0.0-1.25","null","<span style='color:GreenYellow; font-size: 70px;'>正确! </span>","null","","","","","","","","","","","","","","","","","","","","","","","","","feedback_test","",""
"","","","","","psychophysics","262","453324","0.0-9.0-0.0-0.0-0.0-0.26","518","","f","","","","","","","","","","","","","key","f","16.683516483516613","960","536","j","false","../../test_img/26.png","生人","matching_task","自我","[""<img src=\""../../test_img/15.png\"" width=150 style=\""vertical-align:middle\"">---朋友"",""<img src=\""../../test_img/26.png\"" width=150 style=\""vertical-align:middle\"">---自我"",""<img src=\""../../test_img/22.png\"" width=150 style=\""vertical-align:middle\"">---生人""]","","",""
"","","","","","html-keyboard-response","263","453825","0.0-9.0-0.0-0.0-0.0-1.26","null","<span style='color:red; font-size: 70px;'>错误! </span>","null","","","","","","","","","","","","","","","","","","","","","","","","","feedback_test","",""
"","","","","","psychophysics","264","455596","0.0-9.0-0.0-0.0-0.0-0.27","764","","f","","","","","","","","","","","","","key","f","16.68095238095238","960","536","j","false","../../test_img/22.png","自我","matching_task","生人","[""<img src=\""../../test_img/15.png\"" width=150 style=\""vertical-align:middle\"">---朋友"",""<img src=\""../../test_img/26.png\"" width=150 style=\""vertical-align:middle\"">---自我"",""<img src=\""../../test_img/22.png\"" width=150 style=\""vertical-align:middle\"">---生人""]","","",""
"","","","","","html-keyboard-response","265","456104","0.0-9.0-0.0-0.0-0.0-1.27","null","<span style='color:red; font-size: 70px;'>错误! </span>","null","","","","","","","","","","","","","","","","","","","","","","","","","feedback_test","",""
"","","","","","psychophysics","266","457708","0.0-9.0-0.0-0.0-0.0-0.28","597","","j","","","","","","","","","","","","","key","j","16.68421052631579","960","536","f","false","../../test_img/22.png","生人","matching_task","生人","[""<img src=\""../../test_img/15.png\"" width=150 style=\""vertical-align:middle\"">---朋友"",""<img src=\""../../test_img/26.png\"" width=150 style=\""vertical-align:middle\"">---自我"",""<img src=\""../../test_img/22.png\"" width=150 style=\""vertical-align:middle\"">---生人""]","","",""
"","","","","","html-keyboard-response","267","458212","0.0-9.0-0.0-0.0-0.0-1.28","null","<span style='color:red; font-size: 70px;'>错误! </span>","null","","","","","","","","","","","","","","","","","","","","","","","","","feedback_test","",""
