"success","timeout","failed_images","failed_audio","failed_video","trial_type","trial_index","time_elapsed","internal_node_id","rt","stimulus","response","value","item_width_mm","item_height_mm","item_width_px","px2mm","view_dist_mm","item_width_deg","px2deg","scale_factor","win_width_deg","win_height_deg","view_history","response_type","key_press","avg_frame_time","center_x","center_y","correct_response","correct","Image","word","condition","shape","association","screen_id","LeftLable","RightLable"
"true","false","[]","[]","[]","preload","0","487","0.0-0.0","","","","","","","","","","","","","","","","","","","","","","","","","","","","","",""
"","","","","","html-keyboard-response","1","33698","0.0-1.0","33210","
     <p>您好，欢迎参加本次实验。</p>
     <p>为充分保障您的权利，请确保您已经知晓并同意《参与实验同意书》以及《数据公开知情同意书》。</p>
     <p>如果您未见过上述内容，请咨询实验员。</p>
     <p>如果您选择继续实验，则表示您已经清楚两份知情同意书的内容并同意。</p>
     <p> <div style = ""color: green""><按任意键至下页></div> </p>
     "," ","","","","","","","","","","","","","","","","","","","","","","","","","","",""
"","","","","","html-keyboard-response","2","37531","0.0-2.0","3832","
     <p>本实验首先需要您填写一些基本个人信息。</p>
     <p> <div style = ""color: green""><按任意键至下页></div></p>
     "," ","","","","","","","","","","","","","","","","","","","","","","","","","","",""
"","","","","","call-function","3","37532","0.0-3.0-0.0","","","","","","","","","","","","","","","","","","","","","","","","","","","","","",""
"","","","","","survey-html-form","4","43881","0.0-3.0-1.0","6348","","{""Q0"":""30""}","","","","","","","","","","","","","","","","","","","","","","","","","","",""
"","","","","","html-button-response","5","46499","0.0-3.0-2.0","2617","<p style = 'color : white'>您的性别</p>","0","","","","","","","","","","","","","","","","","","","","","","","","","","",""
"","","","","","survey-html-form","6","54985","0.0-3.0-3.0","8485","","{""Q0"":""2001""}","","","","","","","","","","","","","","","","","","","","","","","","","","",""
"","","","","","survey-html-form","7","60598","0.0-3.0-4.0","5611","","{""Q0"":""5""}","","","","","","","","","","","","","","","","","","","","","","","","","","",""
"","","","","","virtual-chinrest","8","322759","0.0-4.0","262160","","","","85.6","53.98","415.39449392433824","4.849893829587823","589.31","8.307889878486764","50","0.9196077598216291","30.72","14.06","","","","","","","","","","","","","","","",""
"true","","","","","fullscreen","9","326479","0.0-5.0","","","","","","","","","","","","","","","","","","","","","","","","","","","","","",""
"","","","","","instructions","10","403663","0.0-6.0","77183","","","","","","","","","","","","","","[{""page_index"":0,""viewing_time"":18371},{""page_index"":1,""viewing_time"":10169},{""page_index"":2,""viewing_time"":38953},{""page_index"":3,""viewing_time"":5405},{""page_index"":4,""viewing_time"":4284}]","","","","","","","","","","","","","","",""
"","","","","","psychophysics","11","405894","0.0-7.0-0.0-0.0","1172","","f","","","","","","","","","","","","","key","f","7.430234113712421","768","428","j","false","../../test_img/15.png","朋友","prac_matching_task","自我","[""<img src=\""../../test_img/22.png\"" width=150 style=\""vertical-align:middle\"">---朋友"",""<img src=\""../../test_img/15.png\"" width=150 style=\""vertical-align:middle\"">---自我"",""<img src=\""../../test_img/26.png\"" width=150 style=\""vertical-align:middle\"">---生人""]","","",""
"","","","","","html-keyboard-response","12","406198","0.0-7.0-0.0-1.0","null","<span style='color:red; font-size: 70px;'>错误! </span>","null","","","","","","","","","","","","","","","","","","","","","","","","","feedback_test","",""
"","","","","","psychophysics","13","407705","0.0-7.0-0.0-0.1","497","","j","","","","","","","","","","","","","key","j","6.942314814814718","768","428","j","true","../../test_img/26.png","朋友","prac_matching_task","生人","[""<img src=\""../../test_img/22.png\"" width=150 style=\""vertical-align:middle\"">---朋友"",""<img src=\""../../test_img/15.png\"" width=150 style=\""vertical-align:middle\"">---自我"",""<img src=\""../../test_img/26.png\"" width=150 style=\""vertical-align:middle\"">---生人""]","","",""
"","","","","","html-keyboard-response","14","408013","0.0-7.0-0.0-1.1","null","<span style='color:GreenYellow; font-size: 70px;'>正确! </span>","null","","","","","","","","","","","","","","","","","","","","","","","","","feedback_test","",""
"","","","","","psychophysics","15","409973","0.0-7.0-0.0-0.2","958","","j","","","","","","","","","","","","","key","j","6.967357142857093","768","428","j","true","../../test_img/22.png","生人","prac_matching_task","朋友","[""<img src=\""../../test_img/22.png\"" width=150 style=\""vertical-align:middle\"">---朋友"",""<img src=\""../../test_img/15.png\"" width=150 style=\""vertical-align:middle\"">---自我"",""<img src=\""../../test_img/26.png\"" width=150 style=\""vertical-align:middle\"">---生人""]","","",""
"","","","","","html-keyboard-response","16","410277","0.0-7.0-0.0-1.2","null","<span style='color:GreenYellow; font-size: 70px;'>正确! </span>","null","","","","","","","","","","","","","","","","","","","","","","","","","feedback_test","",""
"","","","","","psychophysics","17","411958","0.0-7.0-0.0-0.3","675","","j","","","","","","","","","","","","","key","j","6.942572614108019","768","428","j","true","../../test_img/26.png","自我","prac_matching_task","生人","[""<img src=\""../../test_img/22.png\"" width=150 style=\""vertical-align:middle\"">---朋友"",""<img src=\""../../test_img/15.png\"" width=150 style=\""vertical-align:middle\"">---自我"",""<img src=\""../../test_img/26.png\"" width=150 style=\""vertical-align:middle\"">---生人""]","","",""
"","","","","","html-keyboard-response","18","412263","0.0-7.0-0.0-1.3","null","<span style='color:GreenYellow; font-size: 70px;'>正确! </span>","null","","","","","","","","","","","","","","","","","","","","","","","","","feedback_test","",""
"","","","","","psychophysics","19","413708","0.0-7.0-0.0-0.4","431","","f","","","","","","","","","","","","","key","f","6.942608695652152","768","428","f","true","../../test_img/22.png","朋友","prac_matching_task","朋友","[""<img src=\""../../test_img/22.png\"" width=150 style=\""vertical-align:middle\"">---朋友"",""<img src=\""../../test_img/15.png\"" width=150 style=\""vertical-align:middle\"">---自我"",""<img src=\""../../test_img/26.png\"" width=150 style=\""vertical-align:middle\"">---生人""]","","",""
"","","","","","html-keyboard-response","20","414020","0.0-7.0-0.0-1.4","null","<span style='color:GreenYellow; font-size: 70px;'>正确! </span>","null","","","","","","","","","","","","","","","","","","","","","","","","","feedback_test","",""
"","","","","","psychophysics","21","415628","0.0-7.0-0.0-0.5","597","","j","","","","","","","","","","","","","key","j","7.003231441047994","768","428","f","false","../../test_img/26.png","生人","prac_matching_task","生人","[""<img src=\""../../test_img/22.png\"" width=150 style=\""vertical-align:middle\"">---朋友"",""<img src=\""../../test_img/15.png\"" width=150 style=\""vertical-align:middle\"">---自我"",""<img src=\""../../test_img/26.png\"" width=150 style=\""vertical-align:middle\"">---生人""]","","",""
"","","","","","html-keyboard-response","22","415941","0.0-7.0-0.0-1.5","null","<span style='color:red; font-size: 70px;'>错误! </span>","null","","","","","","","","","","","","","","","","","","","","","","","","","feedback_test","",""
"","","","","","psychophysics","23","417724","0.0-7.0-0.0-0.6","768","","j","","","","","","","","","","","","","key","j","6.969803921568582","768","428","f","false","../../test_img/15.png","自我","prac_matching_task","自我","[""<img src=\""../../test_img/22.png\"" width=150 style=\""vertical-align:middle\"">---朋友"",""<img src=\""../../test_img/15.png\"" width=150 style=\""vertical-align:middle\"">---自我"",""<img src=\""../../test_img/26.png\"" width=150 style=\""vertical-align:middle\"">---生人""]","","",""
"","","","","","html-keyboard-response","24","418026","0.0-7.0-0.0-1.6","null","<span style='color:red; font-size: 70px;'>错误! </span>","null","","","","","","","","","","","","","","","","","","","","","","","","","feedback_test","",""
"","","","","","psychophysics","25","419527","0.0-7.0-0.0-0.7","491","","f","","","","","","","","","","","","","key","f","6.9750467289721145","768","428","j","false","../../test_img/22.png","自我","prac_matching_task","朋友","[""<img src=\""../../test_img/22.png\"" width=150 style=\""vertical-align:middle\"">---朋友"",""<img src=\""../../test_img/15.png\"" width=150 style=\""vertical-align:middle\"">---自我"",""<img src=\""../../test_img/26.png\"" width=150 style=\""vertical-align:middle\"">---生人""]","","",""
"","","","","","html-keyboard-response","26","419829","0.0-7.0-0.0-1.7","null","<span style='color:red; font-size: 70px;'>错误! </span>","null","","","","","","","","","","","","","","","","","","","","","","","","","feedback_test","",""
"","","","","","psychophysics","27","421577","0.0-7.0-0.0-0.8","735","","f","","","","","","","","","","","","","key","f","6.970522088353545","768","428","f","true","../../test_img/26.png","生人","prac_matching_task","生人","[""<img src=\""../../test_img/22.png\"" width=150 style=\""vertical-align:middle\"">---朋友"",""<img src=\""../../test_img/15.png\"" width=150 style=\""vertical-align:middle\"">---自我"",""<img src=\""../../test_img/26.png\"" width=150 style=\""vertical-align:middle\"">---生人""]","","",""
"","","","","","html-keyboard-response","28","421884","0.0-7.0-0.0-1.8","null","<span style='color:GreenYellow; font-size: 70px;'>正确! </span>","null","","","","","","","","","","","","","","","","","","","","","","","","","feedback_test","",""
"","","","","","psychophysics","29","423582","0.0-7.0-0.0-0.9","687","","j","","","","","","","","","","","","","key","j","6.971157024793466","768","428","j","true","../../test_img/15.png","生人","prac_matching_task","自我","[""<img src=\""../../test_img/22.png\"" width=150 style=\""vertical-align:middle\"">---朋友"",""<img src=\""../../test_img/15.png\"" width=150 style=\""vertical-align:middle\"">---自我"",""<img src=\""../../test_img/26.png\"" width=150 style=\""vertical-align:middle\"">---生人""]","","",""
"","","","","","html-keyboard-response","30","423894","0.0-7.0-0.0-1.9","null","<span style='color:GreenYellow; font-size: 70px;'>正确! </span>","null","","","","","","","","","","","","","","","","","","","","","","","","","feedback_test","",""
"","","","","","psychophysics","31","425459","0.0-7.0-0.0-0.10","553","","f","","","","","","","","","","","","","key","f","7.005135135135198","768","428","f","true","../../test_img/22.png","朋友","prac_matching_task","朋友","[""<img src=\""../../test_img/22.png\"" width=150 style=\""vertical-align:middle\"">---朋友"",""<img src=\""../../test_img/15.png\"" width=150 style=\""vertical-align:middle\"">---自我"",""<img src=\""../../test_img/26.png\"" width=150 style=\""vertical-align:middle\"">---生人""]","","",""
"","","","","","html-keyboard-response","32","425763","0.0-7.0-0.0-1.10","null","<span style='color:GreenYellow; font-size: 70px;'>正确! </span>","null","","","","","","","","","","","","","","","","","","","","","","","","","feedback_test","",""
"","","","","","psychophysics","33","427209","0.0-7.0-0.0-0.11","437","","f","","","","","","","","","","","","","key","f","6.9802941176469675","768","428","f","true","../../test_img/15.png","自我","prac_matching_task","自我","[""<img src=\""../../test_img/22.png\"" width=150 style=\""vertical-align:middle\"">---朋友"",""<img src=\""../../test_img/15.png\"" width=150 style=\""vertical-align:middle\"">---自我"",""<img src=\""../../test_img/26.png\"" width=150 style=\""vertical-align:middle\"">---生人""]","","",""
"","","","","","html-keyboard-response","34","427518","0.0-7.0-0.0-1.11","null","<span style='color:GreenYellow; font-size: 70px;'>正确! </span>","null","","","","","","","","","","","","","","","","","","","","","","","","","feedback_test","",""
"","","","","","psychophysics","35","429182","0.0-7.0-0.0-0.12","648","","j","","","","","","","","","","","","","key","j","6.942436974789867","768","428","j","true","../../test_img/26.png","自我","prac_matching_task","生人","[""<img src=\""../../test_img/22.png\"" width=150 style=\""vertical-align:middle\"">---朋友"",""<img src=\""../../test_img/15.png\"" width=150 style=\""vertical-align:middle\"">---自我"",""<img src=\""../../test_img/26.png\"" width=150 style=\""vertical-align:middle\"">---生人""]","","",""
"","","","","","html-keyboard-response","36","429482","0.0-7.0-0.0-1.12","null","<span style='color:GreenYellow; font-size: 70px;'>正确! </span>","null","","","","","","","","","","","","","","","","","","","","","","","","","feedback_test","",""
"","","","","","psychophysics","37","431036","0.0-7.0-0.0-0.13","553","","j","","","","","","","","","","","","","key","j","6.942600896860777","768","428","f","false","../../test_img/26.png","生人","prac_matching_task","生人","[""<img src=\""../../test_img/22.png\"" width=150 style=\""vertical-align:middle\"">---朋友"",""<img src=\""../../test_img/15.png\"" width=150 style=\""vertical-align:middle\"">---自我"",""<img src=\""../../test_img/26.png\"" width=150 style=\""vertical-align:middle\"">---生人""]","","",""
"","","","","","html-keyboard-response","38","431353","0.0-7.0-0.0-1.13","null","<span style='color:red; font-size: 70px;'>错误! </span>","null","","","","","","","","","","","","","","","","","","","","","","","","","feedback_test","",""
"","","","","","psychophysics","39","433073","0.0-7.0-0.0-0.14","710","","j","","","","","","","","","","","","","key","j","6.942672064777431","768","428","f","false","../../test_img/15.png","自我","prac_matching_task","自我","[""<img src=\""../../test_img/22.png\"" width=150 style=\""vertical-align:middle\"">---朋友"",""<img src=\""../../test_img/15.png\"" width=150 style=\""vertical-align:middle\"">---自我"",""<img src=\""../../test_img/26.png\"" width=150 style=\""vertical-align:middle\"">---生人""]","","",""
"","","","","","html-keyboard-response","40","433374","0.0-7.0-0.0-1.14","null","<span style='color:red; font-size: 70px;'>错误! </span>","null","","","","","","","","","","","","","","","","","","","","","","","","","feedback_test","",""
"","","","","","psychophysics","41","434995","0.0-7.0-0.0-0.15","612","","f","","","","","","","","","","","","","key","f","6.9425751072961175","768","428","j","false","../../test_img/15.png","生人","prac_matching_task","自我","[""<img src=\""../../test_img/22.png\"" width=150 style=\""vertical-align:middle\"">---朋友"",""<img src=\""../../test_img/15.png\"" width=150 style=\""vertical-align:middle\"">---自我"",""<img src=\""../../test_img/26.png\"" width=150 style=\""vertical-align:middle\"">---生人""]","","",""
"","","","","","html-keyboard-response","42","435304","0.0-7.0-0.0-1.15","null","<span style='color:red; font-size: 70px;'>错误! </span>","null","","","","","","","","","","","","","","","","","","","","","","","","","feedback_test","",""
"","","","","","psychophysics","43","437153","0.0-7.0-0.0-0.16","832","","f","","","","","","","","","","","","","key","f","6.942490566037771","768","428","f","true","../../test_img/26.png","生人","prac_matching_task","生人","[""<img src=\""../../test_img/22.png\"" width=150 style=\""vertical-align:middle\"">---朋友"",""<img src=\""../../test_img/15.png\"" width=150 style=\""vertical-align:middle\"">---自我"",""<img src=\""../../test_img/26.png\"" width=150 style=\""vertical-align:middle\"">---生人""]","","",""
"","","","","","html-keyboard-response","44","437480","0.0-7.0-0.0-1.16","null","<span style='color:GreenYellow; font-size: 70px;'>正确! </span>","null","","","","","","","","","","","","","","","","","","","","","","","","","feedback_test","",""
"","","","","","psychophysics","45","439372","0.0-7.0-0.0-0.17","882","","j","","","","","","","","","","","","","key","j","6.968074074074091","768","428","j","true","../../test_img/22.png","生人","prac_matching_task","朋友","[""<img src=\""../../test_img/22.png\"" width=150 style=\""vertical-align:middle\"">---朋友"",""<img src=\""../../test_img/15.png\"" width=150 style=\""vertical-align:middle\"">---自我"",""<img src=\""../../test_img/26.png\"" width=150 style=\""vertical-align:middle\"">---生人""]","","",""
"","","","","","html-keyboard-response","46","439679","0.0-7.0-0.0-1.17","null","<span style='color:GreenYellow; font-size: 70px;'>正确! </span>","null","","","","","","","","","","","","","","","","","","","","","","","","","feedback_test","",""
"","","","","","psychophysics","47","441434","0.0-7.0-0.0-0.18","742","","f","","","","","","","","","","","","","key","f","6.998160000000149","768","428","f","true","../../test_img/22.png","朋友","prac_matching_task","朋友","[""<img src=\""../../test_img/22.png\"" width=150 style=\""vertical-align:middle\"">---朋友"",""<img src=\""../../test_img/15.png\"" width=150 style=\""vertical-align:middle\"">---自我"",""<img src=\""../../test_img/26.png\"" width=150 style=\""vertical-align:middle\"">---生人""]","","",""
"","","","","","html-keyboard-response","48","441748","0.0-7.0-0.0-1.18","null","<span style='color:GreenYellow; font-size: 70px;'>正确! </span>","null","","","","","","","","","","","","","","","","","","","","","","","","","feedback_test","",""
"","","","","","psychophysics","49","443478","0.0-7.0-0.0-0.19","728","","f","","","","","","","","","","","","","key","f","6.970607287449355","768","428","f","true","../../test_img/15.png","自我","prac_matching_task","自我","[""<img src=\""../../test_img/22.png\"" width=150 style=\""vertical-align:middle\"">---朋友"",""<img src=\""../../test_img/15.png\"" width=150 style=\""vertical-align:middle\"">---自我"",""<img src=\""../../test_img/26.png\"" width=150 style=\""vertical-align:middle\"">---生人""]","","",""
"","","","","","html-keyboard-response","50","443789","0.0-7.0-0.0-1.19","null","<span style='color:GreenYellow; font-size: 70px;'>正确! </span>","null","","","","","","","","","","","","","","","","","","","","","","","","","feedback_test","",""
"","","","","","psychophysics","51","445494","0.0-7.0-0.0-0.20","694","","f","","","","","","","","","","","","","key","f","6.942459016393529","768","428","f","true","../../test_img/22.png","朋友","prac_matching_task","朋友","[""<img src=\""../../test_img/22.png\"" width=150 style=\""vertical-align:middle\"">---朋友"",""<img src=\""../../test_img/15.png\"" width=150 style=\""vertical-align:middle\"">---自我"",""<img src=\""../../test_img/26.png\"" width=150 style=\""vertical-align:middle\"">---生人""]","","",""
"","","","","","html-keyboard-response","52","445807","0.0-7.0-0.0-1.20","null","<span style='color:GreenYellow; font-size: 70px;'>正确! </span>","null","","","","","","","","","","","","","","","","","","","","","","","","","feedback_test","",""
"","","","","","psychophysics","53","447581","0.0-7.0-0.0-0.21","766","","f","","","","","","","","","","","","","key","f","6.9425984251967865","768","428","j","false","../../test_img/15.png","朋友","prac_matching_task","自我","[""<img src=\""../../test_img/22.png\"" width=150 style=\""vertical-align:middle\"">---朋友"",""<img src=\""../../test_img/15.png\"" width=150 style=\""vertical-align:middle\"">---自我"",""<img src=\""../../test_img/26.png\"" width=150 style=\""vertical-align:middle\"">---生人""]","","",""
"","","","","","html-keyboard-response","54","447890","0.0-7.0-0.0-1.21","null","<span style='color:red; font-size: 70px;'>错误! </span>","null","","","","","","","","","","","","","","","","","","","","","","","","","feedback_test","",""
"","","","","","psychophysics","55","449798","0.0-7.0-0.0-0.22","895","","j","","","","","","","","","","","","","key","j","6.9426373626374565","768","428","j","true","../../test_img/22.png","自我","prac_matching_task","朋友","[""<img src=\""../../test_img/22.png\"" width=150 style=\""vertical-align:middle\"">---朋友"",""<img src=\""../../test_img/15.png\"" width=150 style=\""vertical-align:middle\"">---自我"",""<img src=\""../../test_img/26.png\"" width=150 style=\""vertical-align:middle\"">---生人""]","","",""
"","","","","","html-keyboard-response","56","450112","0.0-7.0-0.0-1.22","null","<span style='color:GreenYellow; font-size: 70px;'>正确! </span>","null","","","","","","","","","","","","","","","","","","","","","","","","","feedback_test","",""
"","","","","","psychophysics","57","451760","0.0-7.0-0.0-0.23","632","","j","","","","","","","","","","","","","key","j","6.97199999999993","768","428","j","true","../../test_img/26.png","朋友","prac_matching_task","生人","[""<img src=\""../../test_img/22.png\"" width=150 style=\""vertical-align:middle\"">---朋友"",""<img src=\""../../test_img/15.png\"" width=150 style=\""vertical-align:middle\"">---自我"",""<img src=\""../../test_img/26.png\"" width=150 style=\""vertical-align:middle\"">---生人""]","","",""
"","","","","","html-keyboard-response","58","452068","0.0-7.0-0.0-1.23","null","<span style='color:GreenYellow; font-size: 70px;'>正确! </span>","null","","","","","","","","","","","","","","","","","","","","","","","","","feedback_test","",""
"","","","","","html-keyboard-response","59","464111","0.0-7.0-1.0-0.0","12040","<style>.context{color:white; font-size: 35px; line-height:40px}</style>                          <div><p class='context'>您正确回答了67% 的试次。</p ><p class='context'>您的平均反应时为689毫秒。</p >"," ","","","","","","","","","","","","","","","","","","","","","","","","","","",""
"","","","","","instructions","60","477906","0.0-7.0-1.0-1.0","13796","","","","","","","","","","","","","","[{""page_index"":0,""viewing_time"":4484},{""page_index"":1,""viewing_time"":6749},{""page_index"":2,""viewing_time"":1393},{""page_index"":3,""viewing_time"":1170}]","","","","","","","","","","","","","","",""
"","","","","","psychophysics","61","480005","0.0-7.1-0.1-0.24","1094","","f","","","","","","","","","","","","","key","f","7.012483221476612","768","428","f","true","../../test_img/15.png","自我","prac_matching_task","自我","[""<img src=\""../../test_img/22.png\"" width=150 style=\""vertical-align:middle\"">---朋友"",""<img src=\""../../test_img/15.png\"" width=150 style=\""vertical-align:middle\"">---自我"",""<img src=\""../../test_img/26.png\"" width=150 style=\""vertical-align:middle\"">---生人""]","","",""
"","","","","","html-keyboard-response","62","480315","0.0-7.1-0.1-1.24","null","<span style='color:GreenYellow; font-size: 70px;'>正确! </span>","null","","","","","","","","","","","","","","","","","","","","","","","","","feedback_test","",""
"","","","","","psychophysics","63","481969","0.0-7.1-0.1-0.25","640","","j","","","","","","","","","","","","","key","j","6.942616033755373","768","428","j","true","../../test_img/15.png","生人","prac_matching_task","自我","[""<img src=\""../../test_img/22.png\"" width=150 style=\""vertical-align:middle\"">---朋友"",""<img src=\""../../test_img/15.png\"" width=150 style=\""vertical-align:middle\"">---自我"",""<img src=\""../../test_img/26.png\"" width=150 style=\""vertical-align:middle\"">---生人""]","","",""
"","","","","","html-keyboard-response","64","482278","0.0-7.1-0.1-1.25","null","<span style='color:GreenYellow; font-size: 70px;'>正确! </span>","null","","","","","","","","","","","","","","","","","","","","","","","","","feedback_test","",""
"","","","","","psychophysics","65","484135","0.0-7.1-0.1-0.26","847","","f","","","","","","","","","","","","","key","f","7.1856031128405125","768","428","j","false","../../test_img/22.png","生人","prac_matching_task","朋友","[""<img src=\""../../test_img/22.png\"" width=150 style=\""vertical-align:middle\"">---朋友"",""<img src=\""../../test_img/15.png\"" width=150 style=\""vertical-align:middle\"">---自我"",""<img src=\""../../test_img/26.png\"" width=150 style=\""vertical-align:middle\"">---生人""]","","",""
"","","","","","html-keyboard-response","66","484449","0.0-7.1-0.1-1.26","null","<span style='color:red; font-size: 70px;'>错误! </span>","null","","","","","","","","","","","","","","","","","","","","","","","","","feedback_test","",""
"","","","","","psychophysics","67","486136","0.0-7.1-0.1-0.27","678","","j","","","","","","","","","","","","","key","j","6.9423966942148665","768","428","j","true","../../test_img/26.png","自我","prac_matching_task","生人","[""<img src=\""../../test_img/22.png\"" width=150 style=\""vertical-align:middle\"">---朋友"",""<img src=\""../../test_img/15.png\"" width=150 style=\""vertical-align:middle\"">---自我"",""<img src=\""../../test_img/26.png\"" width=150 style=\""vertical-align:middle\"">---生人""]","","",""
"","","","","","html-keyboard-response","68","486451","0.0-7.1-0.1-1.27","null","<span style='color:GreenYellow; font-size: 70px;'>正确! </span>","null","","","","","","","","","","","","","","","","","","","","","","","","","feedback_test","",""
"","","","","","psychophysics","69","488051","0.0-7.1-0.1-0.28","593","","f","","","","","","","","","","","","","key","f","6.942270742357946","768","428","f","true","../../test_img/22.png","朋友","prac_matching_task","朋友","[""<img src=\""../../test_img/22.png\"" width=150 style=\""vertical-align:middle\"">---朋友"",""<img src=\""../../test_img/15.png\"" width=150 style=\""vertical-align:middle\"">---自我"",""<img src=\""../../test_img/26.png\"" width=150 style=\""vertical-align:middle\"">---生人""]","","",""
"","","","","","html-keyboard-response","70","488357","0.0-7.1-0.1-1.28","null","<span style='color:GreenYellow; font-size: 70px;'>正确! </span>","null","","","","","","","","","","","","","","","","","","","","","","","","","feedback_test","",""
"","","","","","psychophysics","71","490229","0.0-7.1-0.1-0.29","857","","j","","","","","","","","","","","","","key","j","6.94261194029849","768","428","j","true","../../test_img/22.png","自我","prac_matching_task","朋友","[""<img src=\""../../test_img/22.png\"" width=150 style=\""vertical-align:middle\"">---朋友"",""<img src=\""../../test_img/15.png\"" width=150 style=\""vertical-align:middle\"">---自我"",""<img src=\""../../test_img/26.png\"" width=150 style=\""vertical-align:middle\"">---生人""]","","",""
"","","","","","html-keyboard-response","72","490534","0.0-7.1-0.1-1.29","null","<span style='color:GreenYellow; font-size: 70px;'>正确! </span>","null","","","","","","","","","","","","","","","","","","","","","","","","","feedback_test","",""
"","","","","","psychophysics","73","492145","0.0-7.1-0.1-0.30","605","","j","","","","","","","","","","","","","key","j","6.942521739130303","768","428","f","false","../../test_img/26.png","生人","prac_matching_task","生人","[""<img src=\""../../test_img/22.png\"" width=150 style=\""vertical-align:middle\"">---朋友"",""<img src=\""../../test_img/15.png\"" width=150 style=\""vertical-align:middle\"">---自我"",""<img src=\""../../test_img/26.png\"" width=150 style=\""vertical-align:middle\"">---生人""]","","",""
"","","","","","html-keyboard-response","74","492459","0.0-7.1-0.1-1.30","null","<span style='color:red; font-size: 70px;'>错误! </span>","null","","","","","","","","","","","","","","","","","","","","","","","","","feedback_test","",""
"","","","","","psychophysics","75","494286","0.0-7.1-0.1-0.31","814","","j","","","","","","","","","","","","","key","j","6.942595419847408","768","428","j","true","../../test_img/15.png","朋友","prac_matching_task","自我","[""<img src=\""../../test_img/22.png\"" width=150 style=\""vertical-align:middle\"">---朋友"",""<img src=\""../../test_img/15.png\"" width=150 style=\""vertical-align:middle\"">---自我"",""<img src=\""../../test_img/26.png\"" width=150 style=\""vertical-align:middle\"">---生人""]","","",""
"","","","","","html-keyboard-response","76","494592","0.0-7.1-0.1-1.31","null","<span style='color:GreenYellow; font-size: 70px;'>正确! </span>","null","","","","","","","","","","","","","","","","","","","","","","","","","feedback_test","",""
"","","","","","psychophysics","77","496272","0.0-7.1-0.1-0.32","664","","f","","","","","","","","","","","","","key","f","6.942572614107777","768","428","f","true","../../test_img/22.png","朋友","prac_matching_task","朋友","[""<img src=\""../../test_img/22.png\"" width=150 style=\""vertical-align:middle\"">---朋友"",""<img src=\""../../test_img/15.png\"" width=150 style=\""vertical-align:middle\"">---自我"",""<img src=\""../../test_img/26.png\"" width=150 style=\""vertical-align:middle\"">---生人""]","","",""
"","","","","","html-keyboard-response","78","496598","0.0-7.1-0.1-1.32","null","<span style='color:GreenYellow; font-size: 70px;'>正确! </span>","null","","","","","","","","","","","","","","","","","","","","","","","","","feedback_test","",""
"","","","","","psychophysics","79","498521","0.0-7.1-0.1-0.33","913","","f","","","","","","","","","","","","","key","f","6.942536231884109","768","428","f","true","../../test_img/15.png","自我","prac_matching_task","自我","[""<img src=\""../../test_img/22.png\"" width=150 style=\""vertical-align:middle\"">---朋友"",""<img src=\""../../test_img/15.png\"" width=150 style=\""vertical-align:middle\"">---自我"",""<img src=\""../../test_img/26.png\"" width=150 style=\""vertical-align:middle\"">---生人""]","","",""
"","","","","","html-keyboard-response","80","498826","0.0-7.1-0.1-1.33","null","<span style='color:GreenYellow; font-size: 70px;'>正确! </span>","null","","","","","","","","","","","","","","","","","","","","","","","","","feedback_test","",""
"","","","","","psychophysics","81","500477","0.0-7.1-0.1-0.34","634","","j","","","","","","","","","","","","","key","j","6.942372881356031","768","428","j","true","../../test_img/26.png","朋友","prac_matching_task","生人","[""<img src=\""../../test_img/22.png\"" width=150 style=\""vertical-align:middle\"">---朋友"",""<img src=\""../../test_img/15.png\"" width=150 style=\""vertical-align:middle\"">---自我"",""<img src=\""../../test_img/26.png\"" width=150 style=\""vertical-align:middle\"">---生人""]","","",""
"","","","","","html-keyboard-response","82","500778","0.0-7.1-0.1-1.34","null","<span style='color:GreenYellow; font-size: 70px;'>正确! </span>","null","","","","","","","","","","","","","","","","","","","","","","","","","feedback_test","",""
"","","","","","psychophysics","83","502506","0.0-7.1-0.1-0.35","712","","f","","","","","","","","","","","","","key","f","6.942429149797448","768","428","f","true","../../test_img/26.png","生人","prac_matching_task","生人","[""<img src=\""../../test_img/22.png\"" width=150 style=\""vertical-align:middle\"">---朋友"",""<img src=\""../../test_img/15.png\"" width=150 style=\""vertical-align:middle\"">---自我"",""<img src=\""../../test_img/26.png\"" width=150 style=\""vertical-align:middle\"">---生人""]","","",""
"","","","","","html-keyboard-response","84","502817","0.0-7.1-0.1-1.35","null","<span style='color:GreenYellow; font-size: 70px;'>正确! </span>","null","","","","","","","","","","","","","","","","","","","","","","","","","feedback_test","",""
"","","","","","psychophysics","85","504426","0.0-7.1-0.1-0.36","595","","j","","","","","","","","","","","","","key","j","6.942597402597363","768","428","j","true","../../test_img/26.png","自我","prac_matching_task","生人","[""<img src=\""../../test_img/22.png\"" width=150 style=\""vertical-align:middle\"">---朋友"",""<img src=\""../../test_img/15.png\"" width=150 style=\""vertical-align:middle\"">---自我"",""<img src=\""../../test_img/26.png\"" width=150 style=\""vertical-align:middle\"">---生人""]","","",""
"","","","","","html-keyboard-response","86","504740","0.0-7.1-0.1-1.36","null","<span style='color:GreenYellow; font-size: 70px;'>正确! </span>","null","","","","","","","","","","","","","","","","","","","","","","","","","feedback_test","",""
"","","","","","psychophysics","87","506441","0.0-7.1-0.1-0.37","692","","j","","","","","","","","","","","","","key","j","6.942540983606481","768","428","f","false","../../test_img/15.png","自我","prac_matching_task","自我","[""<img src=\""../../test_img/22.png\"" width=150 style=\""vertical-align:middle\"">---朋友"",""<img src=\""../../test_img/15.png\"" width=150 style=\""vertical-align:middle\"">---自我"",""<img src=\""../../test_img/26.png\"" width=150 style=\""vertical-align:middle\"">---生人""]","","",""
"","","","","","html-keyboard-response","88","506758","0.0-7.1-0.1-1.37","null","<span style='color:red; font-size: 70px;'>错误! </span>","null","","","","","","","","","","","","","","","","","","","","","","","","","feedback_test","",""
"","","","","","psychophysics","89","508444","0.0-7.1-0.1-0.38","676","","j","","","","","","","","","","","","","key","j","6.942479338843042","768","428","j","true","../../test_img/15.png","生人","prac_matching_task","自我","[""<img src=\""../../test_img/22.png\"" width=150 style=\""vertical-align:middle\"">---朋友"",""<img src=\""../../test_img/15.png\"" width=150 style=\""vertical-align:middle\"">---自我"",""<img src=\""../../test_img/26.png\"" width=150 style=\""vertical-align:middle\"">---生人""]","","",""
"","","","","","html-keyboard-response","90","508747","0.0-7.1-0.1-1.38","null","<span style='color:GreenYellow; font-size: 70px;'>正确! </span>","null","","","","","","","","","","","","","","","","","","","","","","","","","feedback_test","",""
"","","","","","psychophysics","91","510449","0.0-7.1-0.1-0.39","609","","f","","","","","","","","","","","","","key","f","7.301724137931035","768","428","f","true","../../test_img/26.png","生人","prac_matching_task","生人","[""<img src=\""../../test_img/22.png\"" width=150 style=\""vertical-align:middle\"">---朋友"",""<img src=\""../../test_img/15.png\"" width=150 style=\""vertical-align:middle\"">---自我"",""<img src=\""../../test_img/26.png\"" width=150 style=\""vertical-align:middle\"">---生人""]","","",""
"","","","","","html-keyboard-response","92","510758","0.0-7.1-0.1-1.39","null","<span style='color:GreenYellow; font-size: 70px;'>正确! </span>","null","","","","","","","","","","","","","","","","","","","","","","","","","feedback_test","",""
"","","","","","psychophysics","93","512456","0.0-7.1-0.1-0.40","690","","f","","","","","","","","","","","","","key","f","6.942551440329132","768","428","f","true","../../test_img/15.png","自我","prac_matching_task","自我","[""<img src=\""../../test_img/22.png\"" width=150 style=\""vertical-align:middle\"">---朋友"",""<img src=\""../../test_img/15.png\"" width=150 style=\""vertical-align:middle\"">---自我"",""<img src=\""../../test_img/26.png\"" width=150 style=\""vertical-align:middle\"">---生人""]","","",""
"","","","","","html-keyboard-response","94","512760","0.0-7.1-0.1-1.40","null","<span style='color:GreenYellow; font-size: 70px;'>正确! </span>","null","","","","","","","","","","","","","","","","","","","","","","","","","feedback_test","",""
"","","","","","psychophysics","95","514318","0.0-7.1-0.1-0.41","545","","f","","","","","","","","","","","","","key","f","6.973873873873926","768","428","f","true","../../test_img/22.png","朋友","prac_matching_task","朋友","[""<img src=\""../../test_img/22.png\"" width=150 style=\""vertical-align:middle\"">---朋友"",""<img src=\""../../test_img/15.png\"" width=150 style=\""vertical-align:middle\"">---自我"",""<img src=\""../../test_img/26.png\"" width=150 style=\""vertical-align:middle\"">---生人""]","","",""
"","","","","","html-keyboard-response","96","514627","0.0-7.1-0.1-1.41","null","<span style='color:GreenYellow; font-size: 70px;'>正确! </span>","null","","","","","","","","","","","","","","","","","","","","","","","","","feedback_test","",""
"","","","","","psychophysics","97","516222","0.0-7.1-0.1-0.42","585","","f","","","","","","","","","","","","","key","f","6.942620087336183","768","428","f","true","../../test_img/22.png","朋友","prac_matching_task","朋友","[""<img src=\""../../test_img/22.png\"" width=150 style=\""vertical-align:middle\"">---朋友"",""<img src=\""../../test_img/15.png\"" width=150 style=\""vertical-align:middle\"">---自我"",""<img src=\""../../test_img/26.png\"" width=150 style=\""vertical-align:middle\"">---生人""]","","",""
"","","","","","html-keyboard-response","98","516525","0.0-7.1-0.1-1.42","null","<span style='color:GreenYellow; font-size: 70px;'>正确! </span>","null","","","","","","","","","","","","","","","","","","","","","","","","","feedback_test","",""
"","","","","","psychophysics","99","518141","0.0-7.1-0.1-0.43","612","","j","","","","","","","","","","","","","key","j","6.9423275862068765","768","428","j","true","../../test_img/22.png","自我","prac_matching_task","朋友","[""<img src=\""../../test_img/22.png\"" width=150 style=\""vertical-align:middle\"">---朋友"",""<img src=\""../../test_img/15.png\"" width=150 style=\""vertical-align:middle\"">---自我"",""<img src=\""../../test_img/26.png\"" width=150 style=\""vertical-align:middle\"">---生人""]","","",""
"","","","","","html-keyboard-response","100","518456","0.0-7.1-0.1-1.43","null","<span style='color:GreenYellow; font-size: 70px;'>正确! </span>","null","","","","","","","","","","","","","","","","","","","","","","","","","feedback_test","",""
"","","","","","psychophysics","101","520110","0.0-7.1-0.1-0.44","567","","f","","","","","","","","","","","","","key","f","6.972033898305184","768","428","f","true","../../test_img/26.png","生人","prac_matching_task","生人","[""<img src=\""../../test_img/22.png\"" width=150 style=\""vertical-align:middle\"">---朋友"",""<img src=\""../../test_img/15.png\"" width=150 style=\""vertical-align:middle\"">---自我"",""<img src=\""../../test_img/26.png\"" width=150 style=\""vertical-align:middle\"">---生人""]","","",""
"","","","","","html-keyboard-response","102","520417","0.0-7.1-0.1-1.44","null","<span style='color:GreenYellow; font-size: 70px;'>正确! </span>","null","","","","","","","","","","","","","","","","","","","","","","","","","feedback_test","",""
"","","","","","psychophysics","103","521987","0.0-7.1-0.1-0.45","563","","j","","","","","","","","","","","","","key","j","6.942577777777592","768","428","j","true","../../test_img/26.png","朋友","prac_matching_task","生人","[""<img src=\""../../test_img/22.png\"" width=150 style=\""vertical-align:middle\"">---朋友"",""<img src=\""../../test_img/15.png\"" width=150 style=\""vertical-align:middle\"">---自我"",""<img src=\""../../test_img/26.png\"" width=150 style=\""vertical-align:middle\"">---生人""]","","",""
"","","","","","html-keyboard-response","104","522295","0.0-7.1-0.1-1.45","null","<span style='color:GreenYellow; font-size: 70px;'>正确! </span>","null","","","","","","","","","","","","","","","","","","","","","","","","","feedback_test","",""
"","","","","","psychophysics","105","524030","0.0-7.1-0.1-0.46","719","","f","","","","","","","","","","","","","key","f","6.942570281124545","768","428","j","false","../../test_img/22.png","生人","prac_matching_task","朋友","[""<img src=\""../../test_img/22.png\"" width=150 style=\""vertical-align:middle\"">---朋友"",""<img src=\""../../test_img/15.png\"" width=150 style=\""vertical-align:middle\"">---自我"",""<img src=\""../../test_img/26.png\"" width=150 style=\""vertical-align:middle\"">---生人""]","","",""
"","","","","","html-keyboard-response","106","524334","0.0-7.1-0.1-1.46","null","<span style='color:red; font-size: 70px;'>错误! </span>","null","","","","","","","","","","","","","","","","","","","","","","","","","feedback_test","",""
"","","","","","psychophysics","107","526220","0.0-7.1-0.1-0.47","875","","j","","","","","","","","","","","","","key","j","7.020599250936329","768","428","j","true","../../test_img/15.png","朋友","prac_matching_task","自我","[""<img src=\""../../test_img/22.png\"" width=150 style=\""vertical-align:middle\"">---朋友"",""<img src=\""../../test_img/15.png\"" width=150 style=\""vertical-align:middle\"">---自我"",""<img src=\""../../test_img/26.png\"" width=150 style=\""vertical-align:middle\"">---生人""]","","",""
"","","","","","html-keyboard-response","108","526529","0.0-7.1-0.1-1.47","null","<span style='color:GreenYellow; font-size: 70px;'>正确! </span>","null","","","","","","","","","","","","","","","","","","","","","","","","","feedback_test","",""
"","","","","","html-keyboard-response","109","535689","0.0-8.0","9158","<style>.context{color:white; font-size: 35px; line-height:40px}</style>                          <div><p class='context'>您正确回答了83% 的试次。</p ><p class='context'>您的平均反应时为696毫秒。</p ><p class='context'>恭喜您完成练习。按任意键进入知觉匹配任务正式实验。</p ><p style = 'color:lightgreen; font-size: 35px;' >正式实验与练习要求相同，请您尽可能又快又准地进行按键反应</p><p class='footer' style='font-size: 22px; line-height:40px;'>在实验过程中请将您分别将<span style='color: lightgreen;'>左手和右手的食指</span>放在电脑键盘的相应键位上进行按键。</p >","j","","","","","","","","","","","","","","","","","","","","","","","","","","",""
"","","","","","psychophysics","110","537527","0.0-9.0-0.0-0.0-0.0-0.0","835","","j","","","","","","","","","","","","","key","j","7.022692307692397","768","428","j","true","../../test_img/26.png","自我","matching_task","生人","[""<img src=\""../../test_img/22.png\"" width=150 style=\""vertical-align:middle\"">---朋友"",""<img src=\""../../test_img/15.png\"" width=150 style=\""vertical-align:middle\"">---自我"",""<img src=\""../../test_img/26.png\"" width=150 style=\""vertical-align:middle\"">---生人""]","","",""
"","","","","","html-keyboard-response","111","538042","0.0-9.0-0.0-0.0-0.0-1.0","null","<span style='color:GreenYellow; font-size: 70px;'>正确! </span>","null","","","","","","","","","","","","","","","","","","","","","","","","","feedback_test","",""
"","","","","","psychophysics","112","539720","0.0-9.0-0.0-0.0-0.0-0.1","559","","j","","","","","","","","","","","","","key","j","6.942499999999806","768","428","j","true","../../test_img/22.png","生人","matching_task","朋友","[""<img src=\""../../test_img/22.png\"" width=150 style=\""vertical-align:middle\"">---朋友"",""<img src=\""../../test_img/15.png\"" width=150 style=\""vertical-align:middle\"">---自我"",""<img src=\""../../test_img/26.png\"" width=150 style=\""vertical-align:middle\"">---生人""]","","",""
"","","","","","html-keyboard-response","113","540233","0.0-9.0-0.0-0.0-0.0-1.1","null","<span style='color:GreenYellow; font-size: 70px;'>正确! </span>","null","","","","","","","","","","","","","","","","","","","","","","","","","feedback_test","",""
"","","","","","psychophysics","114","542070","0.0-9.0-0.0-0.0-0.0-0.2","829","","j","","","","","","","","","","","","","key","j","7.273174603174474","768","428","j","true","../../test_img/15.png","朋友","matching_task","自我","[""<img src=\""../../test_img/22.png\"" width=150 style=\""vertical-align:middle\"">---朋友"",""<img src=\""../../test_img/15.png\"" width=150 style=\""vertical-align:middle\"">---自我"",""<img src=\""../../test_img/26.png\"" width=150 style=\""vertical-align:middle\"">---生人""]","","",""
"","","","","","html-keyboard-response","115","542583","0.0-9.0-0.0-0.0-0.0-1.2","null","<span style='color:GreenYellow; font-size: 70px;'>正确! </span>","null","","","","","","","","","","","","","","","","","","","","","","","","","feedback_test","",""
"","","","","","psychophysics","116","544168","0.0-9.0-0.0-0.0-0.0-0.3","574","","j","","","","","","","","","","","","","key","j","6.942555066079131","768","428","f","false","../../test_img/26.png","生人","matching_task","生人","[""<img src=\""../../test_img/22.png\"" width=150 style=\""vertical-align:middle\"">---朋友"",""<img src=\""../../test_img/15.png\"" width=150 style=\""vertical-align:middle\"">---自我"",""<img src=\""../../test_img/26.png\"" width=150 style=\""vertical-align:middle\"">---生人""]","","",""
"","","","","","html-keyboard-response","117","544679","0.0-9.0-0.0-0.0-0.0-1.3","null","<span style='color:red; font-size: 70px;'>错误! </span>","null","","","","","","","","","","","","","","","","","","","","","","","","","feedback_test","",""
"","","","","","psychophysics","118","546304","0.0-9.0-0.0-0.0-0.0-0.4","516","","f","","","","","","","","","","","","","key","f","6.942586206896271","768","428","f","true","../../test_img/15.png","自我","matching_task","自我","[""<img src=\""../../test_img/22.png\"" width=150 style=\""vertical-align:middle\"">---朋友"",""<img src=\""../../test_img/15.png\"" width=150 style=\""vertical-align:middle\"">---自我"",""<img src=\""../../test_img/26.png\"" width=150 style=\""vertical-align:middle\"">---生人""]","","",""
"","","","","","html-keyboard-response","119","546814","0.0-9.0-0.0-0.0-0.0-1.4","null","<span style='color:GreenYellow; font-size: 70px;'>正确! </span>","null","","","","","","","","","","","","","","","","","","","","","","","","","feedback_test","",""
"","","","","","psychophysics","120","548441","0.0-9.0-0.0-0.0-0.0-0.5","614","","j","","","","","","","","","","","","","key","j","6.942660944206069","768","428","j","true","../../test_img/15.png","生人","matching_task","自我","[""<img src=\""../../test_img/22.png\"" width=150 style=\""vertical-align:middle\"">---朋友"",""<img src=\""../../test_img/15.png\"" width=150 style=\""vertical-align:middle\"">---自我"",""<img src=\""../../test_img/26.png\"" width=150 style=\""vertical-align:middle\"">---生人""]","","",""
"","","","","","html-keyboard-response","121","548950","0.0-9.0-0.0-0.0-0.0-1.5","null","<span style='color:GreenYellow; font-size: 70px;'>正确! </span>","null","","","","","","","","","","","","","","","","","","","","","","","","","feedback_test","",""
"","","","","","psychophysics","122","550585","0.0-9.0-0.0-0.0-0.0-0.6","627","","f","","","","","","","","","","","","","key","f","6.942393162393242","768","428","f","true","../../test_img/22.png","朋友","matching_task","朋友","[""<img src=\""../../test_img/22.png\"" width=150 style=\""vertical-align:middle\"">---朋友"",""<img src=\""../../test_img/15.png\"" width=150 style=\""vertical-align:middle\"">---自我"",""<img src=\""../../test_img/26.png\"" width=150 style=\""vertical-align:middle\"">---生人""]","","",""
"","","","","","html-keyboard-response","123","551100","0.0-9.0-0.0-0.0-0.0-1.6","null","<span style='color:GreenYellow; font-size: 70px;'>正确! </span>","null","","","","","","","","","","","","","","","","","","","","","","","","","feedback_test","",""
"","","","","","psychophysics","124","552865","0.0-9.0-0.0-0.0-0.0-0.7","757","","f","","","","","","","","","","","","","key","f","6.942529644268627","768","428","f","true","../../test_img/26.png","生人","matching_task","生人","[""<img src=\""../../test_img/22.png\"" width=150 style=\""vertical-align:middle\"">---朋友"",""<img src=\""../../test_img/15.png\"" width=150 style=\""vertical-align:middle\"">---自我"",""<img src=\""../../test_img/26.png\"" width=150 style=\""vertical-align:middle\"">---生人""]","","",""
"","","","","","html-keyboard-response","125","553372","0.0-9.0-0.0-0.0-0.0-1.7","null","<span style='color:GreenYellow; font-size: 70px;'>正确! </span>","null","","","","","","","","","","","","","","","","","","","","","","","","","feedback_test","",""
"","","","","","psychophysics","126","555005","0.0-9.0-0.0-0.0-0.0-0.8","621","","j","","","","","","","","","","","","","key","j","6.942660944206069","768","428","j","true","../../test_img/26.png","朋友","matching_task","生人","[""<img src=\""../../test_img/22.png\"" width=150 style=\""vertical-align:middle\"">---朋友"",""<img src=\""../../test_img/15.png\"" width=150 style=\""vertical-align:middle\"">---自我"",""<img src=\""../../test_img/26.png\"" width=150 style=\""vertical-align:middle\"">---生人""]","","",""
"","","","","","html-keyboard-response","127","555517","0.0-9.0-0.0-0.0-0.0-1.8","null","<span style='color:GreenYellow; font-size: 70px;'>正确! </span>","null","","","","","","","","","","","","","","","","","","","","","","","","","feedback_test","",""
"","","","","","psychophysics","128","557167","0.0-9.0-0.0-0.0-0.0-0.9","643","","f","","","","","","","","","","","","","key","f","6.942616033755373","768","428","f","true","../../test_img/22.png","朋友","matching_task","朋友","[""<img src=\""../../test_img/22.png\"" width=150 style=\""vertical-align:middle\"">---朋友"",""<img src=\""../../test_img/15.png\"" width=150 style=\""vertical-align:middle\"">---自我"",""<img src=\""../../test_img/26.png\"" width=150 style=\""vertical-align:middle\"">---生人""]","","",""
"","","","","","html-keyboard-response","129","557675","0.0-9.0-0.0-0.0-0.0-1.9","null","<span style='color:GreenYellow; font-size: 70px;'>正确! </span>","null","","","","","","","","","","","","","","","","","","","","","","","","","feedback_test","",""
"","","","","","psychophysics","130","559416","0.0-9.0-0.0-0.0-0.0-0.10","730","","f","","","","","","","","","","","","","key","f","6.942479999999981","768","428","j","false","../../test_img/22.png","自我","matching_task","朋友","[""<img src=\""../../test_img/22.png\"" width=150 style=\""vertical-align:middle\"">---朋友"",""<img src=\""../../test_img/15.png\"" width=150 style=\""vertical-align:middle\"">---自我"",""<img src=\""../../test_img/26.png\"" width=150 style=\""vertical-align:middle\"">---生人""]","","",""
"","","","","","html-keyboard-response","131","559918","0.0-9.0-0.0-0.0-0.0-1.10","null","<span style='color:red; font-size: 70px;'>错误! </span>","null","","","","","","","","","","","","","","","","","","","","","","","","","feedback_test","",""
"","","","","","psychophysics","132","561518","0.0-9.0-0.0-0.0-0.0-0.11","595","","f","","","","","","","","","","","","","key","f","6.94253275109156","768","428","f","true","../../test_img/15.png","自我","matching_task","自我","[""<img src=\""../../test_img/22.png\"" width=150 style=\""vertical-align:middle\"">---朋友"",""<img src=\""../../test_img/15.png\"" width=150 style=\""vertical-align:middle\"">---自我"",""<img src=\""../../test_img/26.png\"" width=150 style=\""vertical-align:middle\"">---生人""]","","",""
"","","","","","html-keyboard-response","133","562025","0.0-9.0-0.0-0.0-0.0-1.11","null","<span style='color:GreenYellow; font-size: 70px;'>正确! </span>","null","","","","","","","","","","","","","","","","","","","","","","","","","feedback_test","",""
"","","","","","psychophysics","134","563589","0.0-9.0-0.0-0.0-0.0-0.12","555","","f","","","","","","","","","","","","","key","f","6.939459459459711","768","428","f","true","../../test_img/26.png","生人","matching_task","生人","[""<img src=\""../../test_img/22.png\"" width=150 style=\""vertical-align:middle\"">---朋友"",""<img src=\""../../test_img/15.png\"" width=150 style=\""vertical-align:middle\"">---自我"",""<img src=\""../../test_img/26.png\"" width=150 style=\""vertical-align:middle\"">---生人""]","","",""
"","","","","","html-keyboard-response","135","564093","0.0-9.0-0.0-0.0-0.0-1.12","null","<span style='color:GreenYellow; font-size: 70px;'>正确! </span>","null","","","","","","","","","","","","","","","","","","","","","","","","","feedback_test","",""
"","","","","","psychophysics","136","565979","0.0-9.0-0.0-0.0-0.0-0.13","874","","j","","","","","","","","","","","","","key","j","6.942509225091976","768","428","j","true","../../test_img/22.png","自我","matching_task","朋友","[""<img src=\""../../test_img/22.png\"" width=150 style=\""vertical-align:middle\"">---朋友"",""<img src=\""../../test_img/15.png\"" width=150 style=\""vertical-align:middle\"">---自我"",""<img src=\""../../test_img/26.png\"" width=150 style=\""vertical-align:middle\"">---生人""]","","",""
"","","","","","html-keyboard-response","137","566491","0.0-9.0-0.0-0.0-0.0-1.13","null","<span style='color:GreenYellow; font-size: 70px;'>正确! </span>","null","","","","","","","","","","","","","","","","","","","","","","","","","feedback_test","",""
"","","","","","psychophysics","138","568300","0.0-9.0-0.0-0.0-0.0-0.14","794","","f","","","","","","","","","","","","","key","f","6.94239382239411","768","428","f","true","../../test_img/26.png","生人","matching_task","生人","[""<img src=\""../../test_img/22.png\"" width=150 style=\""vertical-align:middle\"">---朋友"",""<img src=\""../../test_img/15.png\"" width=150 style=\""vertical-align:middle\"">---自我"",""<img src=\""../../test_img/26.png\"" width=150 style=\""vertical-align:middle\"">---生人""]","","",""
"","","","","","html-keyboard-response","139","568811","0.0-9.0-0.0-0.0-0.0-1.14","null","<span style='color:GreenYellow; font-size: 70px;'>正确! </span>","null","","","","","","","","","","","","","","","","","","","","","","","","","feedback_test","",""
"","","","","","psychophysics","140","570404","0.0-9.0-0.0-0.0-0.0-0.15","582","","f","","","","","","","","","","","","","key","f","6.942368421052571","768","428","f","true","../../test_img/22.png","朋友","matching_task","朋友","[""<img src=\""../../test_img/22.png\"" width=150 style=\""vertical-align:middle\"">---朋友"",""<img src=\""../../test_img/15.png\"" width=150 style=\""vertical-align:middle\"">---自我"",""<img src=\""../../test_img/26.png\"" width=150 style=\""vertical-align:middle\"">---生人""]","","",""
"","","","","","html-keyboard-response","141","570913","0.0-9.0-0.0-0.0-0.0-1.15","null","<span style='color:GreenYellow; font-size: 70px;'>正确! </span>","null","","","","","","","","","","","","","","","","","","","","","","","","","feedback_test","",""
"","","","","","psychophysics","142","572604","0.0-9.0-0.0-0.0-0.0-0.16","679","","j","","","","","","","","","","","","","key","j","6.942633744856197","768","428","j","true","../../test_img/22.png","生人","matching_task","朋友","[""<img src=\""../../test_img/22.png\"" width=150 style=\""vertical-align:middle\"">---朋友"",""<img src=\""../../test_img/15.png\"" width=150 style=\""vertical-align:middle\"">---自我"",""<img src=\""../../test_img/26.png\"" width=150 style=\""vertical-align:middle\"">---生人""]","","",""
"","","","","","html-keyboard-response","143","573105","0.0-9.0-0.0-0.0-0.0-1.16","null","<span style='color:GreenYellow; font-size: 70px;'>正确! </span>","null","","","","","","","","","","","","","","","","","","","","","","","","","feedback_test","",""
"","","","","","psychophysics","144","574835","0.0-9.0-0.0-0.0-0.0-0.17","719","","j","","","","","","","","","","","","","key","j","6.942661290322224","768","428","j","true","../../test_img/26.png","朋友","matching_task","生人","[""<img src=\""../../test_img/22.png\"" width=150 style=\""vertical-align:middle\"">---朋友"",""<img src=\""../../test_img/15.png\"" width=150 style=\""vertical-align:middle\"">---自我"",""<img src=\""../../test_img/26.png\"" width=150 style=\""vertical-align:middle\"">---生人""]","","",""
"","","","","","html-keyboard-response","145","575345","0.0-9.0-0.0-0.0-0.0-1.17","null","<span style='color:GreenYellow; font-size: 70px;'>正确! </span>","null","","","","","","","","","","","","","","","","","","","","","","","","","feedback_test","",""
"","","","","","psychophysics","146","577192","0.0-9.0-0.0-0.0-0.0-0.18","834","","j","","","","","","","","","","","","","key","j","6.942500000000247","768","428","j","true","../../test_img/15.png","朋友","matching_task","自我","[""<img src=\""../../test_img/22.png\"" width=150 style=\""vertical-align:middle\"">---朋友"",""<img src=\""../../test_img/15.png\"" width=150 style=\""vertical-align:middle\"">---自我"",""<img src=\""../../test_img/26.png\"" width=150 style=\""vertical-align:middle\"">---生人""]","","",""
"","","","","","html-keyboard-response","147","577738","0.0-9.0-0.0-0.0-0.0-1.18","null","<span style='color:GreenYellow; font-size: 70px;'>正确! </span>","null","","","","","","","","","","","","","","","","","","","","","","","","","feedback_test","",""
"","","","","","psychophysics","148","579423","0.0-9.0-0.0-0.0-0.0-0.19","674","","f","","","","","","","","","","","","","key","f","6.942561983470978","768","428","f","true","../../test_img/15.png","自我","matching_task","自我","[""<img src=\""../../test_img/22.png\"" width=150 style=\""vertical-align:middle\"">---朋友"",""<img src=\""../../test_img/15.png\"" width=150 style=\""vertical-align:middle\"">---自我"",""<img src=\""../../test_img/26.png\"" width=150 style=\""vertical-align:middle\"">---生人""]","","",""
"","","","","","html-keyboard-response","149","579926","0.0-9.0-0.0-0.0-0.0-1.19","null","<span style='color:GreenYellow; font-size: 70px;'>正确! </span>","null","","","","","","","","","","","","","","","","","","","","","","","","","feedback_test","",""
"","","","","","psychophysics","150","581589","0.0-9.0-0.0-0.0-0.0-0.20","653","","f","","","","","","","","","","","","","key","f","6.942594142259531","768","428","f","true","../../test_img/22.png","朋友","matching_task","朋友","[""<img src=\""../../test_img/22.png\"" width=150 style=\""vertical-align:middle\"">---朋友"",""<img src=\""../../test_img/15.png\"" width=150 style=\""vertical-align:middle\"">---自我"",""<img src=\""../../test_img/26.png\"" width=150 style=\""vertical-align:middle\"">---生人""]","","",""
"","","","","","html-keyboard-response","151","582100","0.0-9.0-0.0-0.0-0.0-1.20","null","<span style='color:GreenYellow; font-size: 70px;'>正确! </span>","null","","","","","","","","","","","","","","","","","","","","","","","","","feedback_test","",""
"","","","","","psychophysics","152","583872","0.0-9.0-0.0-0.0-0.0-0.21","760","","j","","","","","","","","","","","","","key","j","6.971314741035578","768","428","j","true","../../test_img/26.png","自我","matching_task","生人","[""<img src=\""../../test_img/22.png\"" width=150 style=\""vertical-align:middle\"">---朋友"",""<img src=\""../../test_img/15.png\"" width=150 style=\""vertical-align:middle\"">---自我"",""<img src=\""../../test_img/26.png\"" width=150 style=\""vertical-align:middle\"">---生人""]","","",""
"","","","","","html-keyboard-response","153","584381","0.0-9.0-0.0-0.0-0.0-1.21","null","<span style='color:GreenYellow; font-size: 70px;'>正确! </span>","null","","","","","","","","","","","","","","","","","","","","","","","","","feedback_test","",""
"","","","","","psychophysics","154","586179","0.0-9.0-0.0-0.0-0.0-0.22","788","","j","","","","","","","","","","","","","key","j","6.94256809338563","768","428","j","true","../../test_img/15.png","生人","matching_task","自我","[""<img src=\""../../test_img/22.png\"" width=150 style=\""vertical-align:middle\"">---朋友"",""<img src=\""../../test_img/15.png\"" width=150 style=\""vertical-align:middle\"">---自我"",""<img src=\""../../test_img/26.png\"" width=150 style=\""vertical-align:middle\"">---生人""]","","",""
"","","","","","html-keyboard-response","155","586685","0.0-9.0-0.0-0.0-0.0-1.22","null","<span style='color:GreenYellow; font-size: 70px;'>正确! </span>","null","","","","","","","","","","","","","","","","","","","","","","","","","feedback_test","",""
"","","","","","psychophysics","156","588452","0.0-9.0-0.0-0.0-0.0-0.23","756","","f","","","","","","","","","","","","","key","f","6.942529644269087","768","428","f","true","../../test_img/15.png","自我","matching_task","自我","[""<img src=\""../../test_img/22.png\"" width=150 style=\""vertical-align:middle\"">---朋友"",""<img src=\""../../test_img/15.png\"" width=150 style=\""vertical-align:middle\"">---自我"",""<img src=\""../../test_img/26.png\"" width=150 style=\""vertical-align:middle\"">---生人""]","","",""
"","","","","","html-keyboard-response","157","588965","0.0-9.0-0.0-0.0-0.0-1.23","null","<span style='color:GreenYellow; font-size: 70px;'>正确! </span>","null","","","","","","","","","","","","","","","","","","","","","","","","","feedback_test","",""
"","","","","","psychophysics","158","590703","0.0-9.0-0.0-0.0-0.0-0.24","723","","f","","","","","","","","","","","","","key","f","6.9424899598395635","768","428","f","true","../../test_img/26.png","生人","matching_task","生人","[""<img src=\""../../test_img/22.png\"" width=150 style=\""vertical-align:middle\"">---朋友"",""<img src=\""../../test_img/15.png\"" width=150 style=\""vertical-align:middle\"">---自我"",""<img src=\""../../test_img/26.png\"" width=150 style=\""vertical-align:middle\"">---生人""]","","",""
"","","","","","html-keyboard-response","159","591211","0.0-9.0-0.0-0.0-0.0-1.24","null","<span style='color:GreenYellow; font-size: 70px;'>正确! </span>","null","","","","","","","","","","","","","","","","","","","","","","","","","feedback_test","",""
"","","","","","psychophysics","160","592806","0.0-9.0-0.0-0.0-0.0-0.25","578","","f","","","","","","","","","","","","","key","f","6.9354185022024994","768","428","f","true","../../test_img/26.png","生人","matching_task","生人","[""<img src=\""../../test_img/22.png\"" width=150 style=\""vertical-align:middle\"">---朋友"",""<img src=\""../../test_img/15.png\"" width=150 style=\""vertical-align:middle\"">---自我"",""<img src=\""../../test_img/26.png\"" width=150 style=\""vertical-align:middle\"">---生人""]","","",""
"","","","","","html-keyboard-response","161","593319","0.0-9.0-0.0-0.0-0.0-1.25","null","<span style='color:GreenYellow; font-size: 70px;'>正确! </span>","null","","","","","","","","","","","","","","","","","","","","","","","","","feedback_test","",""
"","","","","","psychophysics","162","594878","0.0-9.0-0.0-0.0-0.0-0.26","547","","f","","","","","","","","","","","","","key","f","7.268544600938749","768","428","f","true","../../test_img/15.png","自我","matching_task","自我","[""<img src=\""../../test_img/22.png\"" width=150 style=\""vertical-align:middle\"">---朋友"",""<img src=\""../../test_img/15.png\"" width=150 style=\""vertical-align:middle\"">---自我"",""<img src=\""../../test_img/26.png\"" width=150 style=\""vertical-align:middle\"">---生人""]","","",""
"","","","","","html-keyboard-response","163","595395","0.0-9.0-0.0-0.0-0.0-1.26","null","<span style='color:GreenYellow; font-size: 70px;'>正确! </span>","null","","","","","","","","","","","","","","","","","","","","","","","","","feedback_test","",""
"","","","","","psychophysics","164","597212","0.0-9.0-0.0-0.0-0.0-0.27","807","","j","","","","","","","","","","","","","key","j","6.942615384615671","768","428","j","true","../../test_img/22.png","生人","matching_task","朋友","[""<img src=\""../../test_img/22.png\"" width=150 style=\""vertical-align:middle\"">---朋友"",""<img src=\""../../test_img/15.png\"" width=150 style=\""vertical-align:middle\"">---自我"",""<img src=\""../../test_img/26.png\"" width=150 style=\""vertical-align:middle\"">---生人""]","","",""
"","","","","","html-keyboard-response","165","597725","0.0-9.0-0.0-0.0-0.0-1.27","null","<span style='color:GreenYellow; font-size: 70px;'>正确! </span>","null","","","","","","","","","","","","","","","","","","","","","","","","","feedback_test","",""
"","","","","","psychophysics","166","599419","0.0-9.0-0.0-0.0-0.0-0.28","691","","f","","","","","","","","","","","","","key","f","6.9393360995850815","768","428","f","true","../../test_img/15.png","自我","matching_task","自我","[""<img src=\""../../test_img/22.png\"" width=150 style=\""vertical-align:middle\"">---朋友"",""<img src=\""../../test_img/15.png\"" width=150 style=\""vertical-align:middle\"">---自我"",""<img src=\""../../test_img/26.png\"" width=150 style=\""vertical-align:middle\"">---生人""]","","",""
"","","","","","html-keyboard-response","167","599919","0.0-9.0-0.0-0.0-0.0-1.28","null","<span style='color:GreenYellow; font-size: 70px;'>正确! </span>","null","","","","","","","","","","","","","","","","","","","","","","","","","feedback_test","",""
"","","","","","psychophysics","168","601569","0.0-9.0-0.0-0.0-0.0-0.29","639","","j","","","","","","","","","","","","","key","j","6.94262711864391","768","428","j","true","../../test_img/15.png","朋友","matching_task","自我","[""<img src=\""../../test_img/22.png\"" width=150 style=\""vertical-align:middle\"">---朋友"",""<img src=\""../../test_img/15.png\"" width=150 style=\""vertical-align:middle\"">---自我"",""<img src=\""../../test_img/26.png\"" width=150 style=\""vertical-align:middle\"">---生人""]","","",""
"","","","","","html-keyboard-response","169","602078","0.0-9.0-0.0-0.0-0.0-1.29","null","<span style='color:GreenYellow; font-size: 70px;'>正确! </span>","null","","","","","","","","","","","","","","","","","","","","","","","","","feedback_test","",""
"","","","","","psychophysics","170","603740","0.0-9.0-0.0-0.0-0.0-0.30","639","","f","","","","","","","","","","","","","key","f","6.942521008403635","768","428","j","false","../../test_img/22.png","自我","matching_task","朋友","[""<img src=\""../../test_img/22.png\"" width=150 style=\""vertical-align:middle\"">---朋友"",""<img src=\""../../test_img/15.png\"" width=150 style=\""vertical-align:middle\"">---自我"",""<img src=\""../../test_img/26.png\"" width=150 style=\""vertical-align:middle\"">---生人""]","","",""
"","","","","","html-keyboard-response","171","604252","0.0-9.0-0.0-0.0-0.0-1.30","null","<span style='color:red; font-size: 70px;'>错误! </span>","null","","","","","","","","","","","","","","","","","","","","","","","","","feedback_test","",""
"","","","","","psychophysics","172","605886","0.0-9.0-0.0-0.0-0.0-0.31","629","","f","","","","","","","","","","","","","key","f","6.974458874458774","768","428","f","true","../../test_img/22.png","朋友","matching_task","朋友","[""<img src=\""../../test_img/22.png\"" width=150 style=\""vertical-align:middle\"">---朋友"",""<img src=\""../../test_img/15.png\"" width=150 style=\""vertical-align:middle\"">---自我"",""<img src=\""../../test_img/26.png\"" width=150 style=\""vertical-align:middle\"">---生人""]","","",""
"","","","","","html-keyboard-response","173","606390","0.0-9.0-0.0-0.0-0.0-1.31","null","<span style='color:GreenYellow; font-size: 70px;'>正确! </span>","null","","","","","","","","","","","","","","","","","","","","","","","","","feedback_test","",""
"","","","","","psychophysics","174","608080","0.0-9.0-0.0-0.0-0.0-0.32","674","","j","","","","","","","","","","","","","key","j","6.9426446280991545","768","428","j","true","../../test_img/15.png","生人","matching_task","自我","[""<img src=\""../../test_img/22.png\"" width=150 style=\""vertical-align:middle\"">---朋友"",""<img src=\""../../test_img/15.png\"" width=150 style=\""vertical-align:middle\"">---自我"",""<img src=\""../../test_img/26.png\"" width=150 style=\""vertical-align:middle\"">---生人""]","","",""
"","","","","","html-keyboard-response","175","608591","0.0-9.0-0.0-0.0-0.0-1.32","null","<span style='color:GreenYellow; font-size: 70px;'>正确! </span>","null","","","","","","","","","","","","","","","","","","","","","","","","","feedback_test","",""
"","","","","","psychophysics","176","610322","0.0-9.0-0.0-0.0-0.0-0.33","721","","j","","","","","","","","","","","","","key","j","6.9425806451613274","768","428","j","true","../../test_img/26.png","自我","matching_task","生人","[""<img src=\""../../test_img/22.png\"" width=150 style=\""vertical-align:middle\"">---朋友"",""<img src=\""../../test_img/15.png\"" width=150 style=\""vertical-align:middle\"">---自我"",""<img src=\""../../test_img/26.png\"" width=150 style=\""vertical-align:middle\"">---生人""]","","",""
"","","","","","html-keyboard-response","177","610828","0.0-9.0-0.0-0.0-0.0-1.33","null","<span style='color:GreenYellow; font-size: 70px;'>正确! </span>","null","","","","","","","","","","","","","","","","","","","","","","","","","feedback_test","",""
"","","","","","psychophysics","178","612496","0.0-9.0-0.0-0.0-0.0-0.34","658","","j","","","","","","","","","","","","","key","j","6.942510460251085","768","428","j","true","../../test_img/26.png","朋友","matching_task","生人","[""<img src=\""../../test_img/22.png\"" width=150 style=\""vertical-align:middle\"">---朋友"",""<img src=\""../../test_img/15.png\"" width=150 style=\""vertical-align:middle\"">---自我"",""<img src=\""../../test_img/26.png\"" width=150 style=\""vertical-align:middle\"">---生人""]","","",""
"","","","","","html-keyboard-response","179","613004","0.0-9.0-0.0-0.0-0.0-1.34","null","<span style='color:GreenYellow; font-size: 70px;'>正确! </span>","null","","","","","","","","","","","","","","","","","","","","","","","","","feedback_test","",""
"","","","","","psychophysics","180","614583","0.0-9.0-0.0-0.0-0.0-0.35","564","","f","","","","","","","","","","","","","key","f","6.942566371681498","768","428","f","true","../../test_img/22.png","朋友","matching_task","朋友","[""<img src=\""../../test_img/22.png\"" width=150 style=\""vertical-align:middle\"">---朋友"",""<img src=\""../../test_img/15.png\"" width=150 style=\""vertical-align:middle\"">---自我"",""<img src=\""../../test_img/26.png\"" width=150 style=\""vertical-align:middle\"">---生人""]","","",""
"","","","","","html-keyboard-response","181","615090","0.0-9.0-0.0-0.0-0.0-1.35","null","<span style='color:GreenYellow; font-size: 70px;'>正确! </span>","null","","","","","","","","","","","","","","","","","","","","","","","","","feedback_test","",""
"","","","","","psychophysics","182","616680","0.0-9.0-0.0-0.0-0.0-0.36","578","","j","","","","","","","","","","","","","key","j","6.942631578947042","768","428","j","true","../../test_img/26.png","自我","matching_task","生人","[""<img src=\""../../test_img/22.png\"" width=150 style=\""vertical-align:middle\"">---朋友"",""<img src=\""../../test_img/15.png\"" width=150 style=\""vertical-align:middle\"">---自我"",""<img src=\""../../test_img/26.png\"" width=150 style=\""vertical-align:middle\"">---生人""]","","",""
"","","","","","html-keyboard-response","183","617185","0.0-9.0-0.0-0.0-0.0-1.36","null","<span style='color:GreenYellow; font-size: 70px;'>正确! </span>","null","","","","","","","","","","","","","","","","","","","","","","","","","feedback_test","",""
"","","","","","psychophysics","184","619080","0.0-9.0-0.0-0.0-0.0-0.37","884","","f","","","","","","","","","","","","","key","f","6.942573529411781","768","428","f","true","../../test_img/15.png","自我","matching_task","自我","[""<img src=\""../../test_img/22.png\"" width=150 style=\""vertical-align:middle\"">---朋友"",""<img src=\""../../test_img/15.png\"" width=150 style=\""vertical-align:middle\"">---自我"",""<img src=\""../../test_img/26.png\"" width=150 style=\""vertical-align:middle\"">---生人""]","","",""
"","","","","","html-keyboard-response","185","619589","0.0-9.0-0.0-0.0-0.0-1.37","null","<span style='color:GreenYellow; font-size: 70px;'>正确! </span>","null","","","","","","","","","","","","","","","","","","","","","","","","","feedback_test","",""
"","","","","","psychophysics","186","621213","0.0-9.0-0.0-0.0-0.0-0.38","614","","j","","","","","","","","","","","","","key","j","6.942317596566264","768","428","j","true","../../test_img/15.png","朋友","matching_task","自我","[""<img src=\""../../test_img/22.png\"" width=150 style=\""vertical-align:middle\"">---朋友"",""<img src=\""../../test_img/15.png\"" width=150 style=\""vertical-align:middle\"">---自我"",""<img src=\""../../test_img/26.png\"" width=150 style=\""vertical-align:middle\"">---生人""]","","",""
"","","","","","html-keyboard-response","187","621719","0.0-9.0-0.0-0.0-0.0-1.38","null","<span style='color:GreenYellow; font-size: 70px;'>正确! </span>","null","","","","","","","","","","","","","","","","","","","","","","","","","feedback_test","",""
"","","","","","psychophysics","188","623415","0.0-9.0-0.0-0.0-0.0-0.39","680","","f","","","","","","","","","","","","","key","f","6.942222222222069","768","428","f","true","../../test_img/15.png","自我","matching_task","自我","[""<img src=\""../../test_img/22.png\"" width=150 style=\""vertical-align:middle\"">---朋友"",""<img src=\""../../test_img/15.png\"" width=150 style=\""vertical-align:middle\"">---自我"",""<img src=\""../../test_img/26.png\"" width=150 style=\""vertical-align:middle\"">---生人""]","","",""
"","","","","","html-keyboard-response","189","623921","0.0-9.0-0.0-0.0-0.0-1.39","null","<span style='color:GreenYellow; font-size: 70px;'>正确! </span>","null","","","","","","","","","","","","","","","","","","","","","","","","","feedback_test","",""
"","","","","","psychophysics","190","625650","0.0-9.0-0.0-0.0-0.0-0.40","717","","f","","","","","","","","","","","","","key","f","6.942429149797684","768","428","j","false","../../test_img/22.png","自我","matching_task","朋友","[""<img src=\""../../test_img/22.png\"" width=150 style=\""vertical-align:middle\"">---朋友"",""<img src=\""../../test_img/15.png\"" width=150 style=\""vertical-align:middle\"">---自我"",""<img src=\""../../test_img/26.png\"" width=150 style=\""vertical-align:middle\"">---生人""]","","",""
"","","","","","html-keyboard-response","191","626161","0.0-9.0-0.0-0.0-0.0-1.40","null","<span style='color:red; font-size: 70px;'>错误! </span>","null","","","","","","","","","","","","","","","","","","","","","","","","","feedback_test","",""
"","","","","","psychophysics","192","627777","0.0-9.0-0.0-0.0-0.0-0.41","607","","f","","","","","","","","","","","","","key","f","6.942586206896772","768","428","f","true","../../test_img/26.png","生人","matching_task","生人","[""<img src=\""../../test_img/22.png\"" width=150 style=\""vertical-align:middle\"">---朋友"",""<img src=\""../../test_img/15.png\"" width=150 style=\""vertical-align:middle\"">---自我"",""<img src=\""../../test_img/26.png\"" width=150 style=\""vertical-align:middle\"">---生人""]","","",""
"","","","","","html-keyboard-response","193","628281","0.0-9.0-0.0-0.0-0.0-1.41","null","<span style='color:GreenYellow; font-size: 70px;'>正确! </span>","null","","","","","","","","","","","","","","","","","","","","","","","","","feedback_test","",""
"","","","","","psychophysics","194","629873","0.0-9.0-0.0-0.0-0.0-0.42","578","","f","","","","","","","","","","","","","key","f","7.000444444444341","768","428","f","true","../../test_img/26.png","生人","matching_task","生人","[""<img src=\""../../test_img/22.png\"" width=150 style=\""vertical-align:middle\"">---朋友"",""<img src=\""../../test_img/15.png\"" width=150 style=\""vertical-align:middle\"">---自我"",""<img src=\""../../test_img/26.png\"" width=150 style=\""vertical-align:middle\"">---生人""]","","",""
"","","","","","html-keyboard-response","195","630386","0.0-9.0-0.0-0.0-0.0-1.42","null","<span style='color:GreenYellow; font-size: 70px;'>正确! </span>","null","","","","","","","","","","","","","","","","","","","","","","","","","feedback_test","",""
"","","","","","psychophysics","196","632181","0.0-9.0-0.0-0.0-0.0-0.43","790","","f","","","","","","","","","","","","","key","f","6.942568093385177","768","428","f","true","../../test_img/22.png","朋友","matching_task","朋友","[""<img src=\""../../test_img/22.png\"" width=150 style=\""vertical-align:middle\"">---朋友"",""<img src=\""../../test_img/15.png\"" width=150 style=\""vertical-align:middle\"">---自我"",""<img src=\""../../test_img/26.png\"" width=150 style=\""vertical-align:middle\"">---生人""]","","",""
"","","","","","html-keyboard-response","197","632686","0.0-9.0-0.0-0.0-0.0-1.43","null","<span style='color:GreenYellow; font-size: 70px;'>正确! </span>","null","","","","","","","","","","","","","","","","","","","","","","","","","feedback_test","",""
"","","","","","psychophysics","198","634297","0.0-9.0-0.0-0.0-0.0-0.44","603","","f","","","","","","","","","","","","","key","f","6.941991341991241","768","428","f","true","../../test_img/22.png","朋友","matching_task","朋友","[""<img src=\""../../test_img/22.png\"" width=150 style=\""vertical-align:middle\"">---朋友"",""<img src=\""../../test_img/15.png\"" width=150 style=\""vertical-align:middle\"">---自我"",""<img src=\""../../test_img/26.png\"" width=150 style=\""vertical-align:middle\"">---生人""]","","",""
"","","","","","html-keyboard-response","199","634808","0.0-9.0-0.0-0.0-0.0-1.44","null","<span style='color:GreenYellow; font-size: 70px;'>正确! </span>","null","","","","","","","","","","","","","","","","","","","","","","","","","feedback_test","",""
"","","","","","psychophysics","200","636516","0.0-9.0-0.0-0.0-0.0-0.45","702","","j","","","","","","","","","","","","","key","j","6.938353909465097","768","428","j","true","../../test_img/15.png","生人","matching_task","自我","[""<img src=\""../../test_img/22.png\"" width=150 style=\""vertical-align:middle\"">---朋友"",""<img src=\""../../test_img/15.png\"" width=150 style=\""vertical-align:middle\"">---自我"",""<img src=\""../../test_img/26.png\"" width=150 style=\""vertical-align:middle\"">---生人""]","","",""
"","","","","","html-keyboard-response","201","637021","0.0-9.0-0.0-0.0-0.0-1.45","null","<span style='color:GreenYellow; font-size: 70px;'>正确! </span>","null","","","","","","","","","","","","","","","","","","","","","","","","","feedback_test","",""
"","","","","","psychophysics","202","638940","0.0-9.0-0.0-0.0-0.0-0.46","914","","j","","","","","","","","","","","","","key","j","6.942545454545709","768","428","j","true","../../test_img/26.png","朋友","matching_task","生人","[""<img src=\""../../test_img/22.png\"" width=150 style=\""vertical-align:middle\"">---朋友"",""<img src=\""../../test_img/15.png\"" width=150 style=\""vertical-align:middle\"">---自我"",""<img src=\""../../test_img/26.png\"" width=150 style=\""vertical-align:middle\"">---生人""]","","",""
"","","","","","html-keyboard-response","203","639454","0.0-9.0-0.0-0.0-0.0-1.46","null","<span style='color:GreenYellow; font-size: 70px;'>正确! </span>","null","","","","","","","","","","","","","","","","","","","","","","","","","feedback_test","",""
"","","","","","psychophysics","204","641083","0.0-9.0-0.0-0.0-0.0-0.47","615","","j","","","","","","","","","","","","","key","j","6.942403433476215","768","428","j","true","../../test_img/22.png","生人","matching_task","朋友","[""<img src=\""../../test_img/22.png\"" width=150 style=\""vertical-align:middle\"">---朋友"",""<img src=\""../../test_img/15.png\"" width=150 style=\""vertical-align:middle\"">---自我"",""<img src=\""../../test_img/26.png\"" width=150 style=\""vertical-align:middle\"">---生人""]","","",""
"","","","","","html-keyboard-response","205","641597","0.0-9.0-0.0-0.0-0.0-1.47","null","<span style='color:GreenYellow; font-size: 70px;'>正确! </span>","null","","","","","","","","","","","","","","","","","","","","","","","","","feedback_test","",""
"","","","","","psychophysics","206","643231","0.0-9.0-0.0-0.0-0.0-0.48","620","","j","","","","","","","","","","","","","key","j","6.942564102564341","768","428","j","true","../../test_img/15.png","生人","matching_task","自我","[""<img src=\""../../test_img/22.png\"" width=150 style=\""vertical-align:middle\"">---朋友"",""<img src=\""../../test_img/15.png\"" width=150 style=\""vertical-align:middle\"">---自我"",""<img src=\""../../test_img/26.png\"" width=150 style=\""vertical-align:middle\"">---生人""]","","",""
"","","","","","html-keyboard-response","207","643741","0.0-9.0-0.0-0.0-0.0-1.48","null","<span style='color:GreenYellow; font-size: 70px;'>正确! </span>","null","","","","","","","","","","","","","","","","","","","","","","","","","feedback_test","",""
"","","","","","psychophysics","208","645440","0.0-9.0-0.0-0.0-0.0-0.49","690","","j","","","","","","","","","","","","","key","j","6.942633744855718","768","428","j","true","../../test_img/26.png","自我","matching_task","生人","[""<img src=\""../../test_img/22.png\"" width=150 style=\""vertical-align:middle\"">---朋友"",""<img src=\""../../test_img/15.png\"" width=150 style=\""vertical-align:middle\"">---自我"",""<img src=\""../../test_img/26.png\"" width=150 style=\""vertical-align:middle\"">---生人""]","","",""
"","","","","","html-keyboard-response","209","645941","0.0-9.0-0.0-0.0-0.0-1.49","null","<span style='color:GreenYellow; font-size: 70px;'>正确! </span>","null","","","","","","","","","","","","","","","","","","","","","","","","","feedback_test","",""
"","","","","","psychophysics","210","647572","0.0-9.0-0.0-0.0-0.0-0.50","623","","f","","","","","","","","","","","","","key","f","6.9425751072961175","768","428","f","true","../../test_img/22.png","朋友","matching_task","朋友","[""<img src=\""../../test_img/22.png\"" width=150 style=\""vertical-align:middle\"">---朋友"",""<img src=\""../../test_img/15.png\"" width=150 style=\""vertical-align:middle\"">---自我"",""<img src=\""../../test_img/26.png\"" width=150 style=\""vertical-align:middle\"">---生人""]","","",""
"","","","","","html-keyboard-response","211","648087","0.0-9.0-0.0-0.0-0.0-1.50","null","<span style='color:GreenYellow; font-size: 70px;'>正确! </span>","null","","","","","","","","","","","","","","","","","","","","","","","","","feedback_test","",""
"","","","","","psychophysics","212","649857","0.0-9.0-0.0-0.0-0.0-0.51","749","","f","","","","","","","","","","","","","key","f","6.942213438735196","768","428","f","true","../../test_img/15.png","自我","matching_task","自我","[""<img src=\""../../test_img/22.png\"" width=150 style=\""vertical-align:middle\"">---朋友"",""<img src=\""../../test_img/15.png\"" width=150 style=\""vertical-align:middle\"">---自我"",""<img src=\""../../test_img/26.png\"" width=150 style=\""vertical-align:middle\"">---生人""]","","",""
"","","","","","html-keyboard-response","213","650359","0.0-9.0-0.0-0.0-0.0-1.51","null","<span style='color:GreenYellow; font-size: 70px;'>正确! </span>","null","","","","","","","","","","","","","","","","","","","","","","","","","feedback_test","",""
"","","","","","psychophysics","214","652251","0.0-9.0-0.0-0.0-0.0-0.52","884","","j","","","","","","","","","","","","","key","j","6.942509225091976","768","428","f","false","../../test_img/15.png","自我","matching_task","自我","[""<img src=\""../../test_img/22.png\"" width=150 style=\""vertical-align:middle\"">---朋友"",""<img src=\""../../test_img/15.png\"" width=150 style=\""vertical-align:middle\"">---自我"",""<img src=\""../../test_img/26.png\"" width=150 style=\""vertical-align:middle\"">---生人""]","","",""
"","","","","","html-keyboard-response","215","652763","0.0-9.0-0.0-0.0-0.0-1.52","null","<span style='color:red; font-size: 70px;'>错误! </span>","null","","","","","","","","","","","","","","","","","","","","","","","","","feedback_test","",""
"","","","","","psychophysics","216","654363","0.0-9.0-0.0-0.0-0.0-0.53","589","","j","","","","","","","","","","","","","key","j","6.94253275109156","768","428","j","true","../../test_img/26.png","朋友","matching_task","生人","[""<img src=\""../../test_img/22.png\"" width=150 style=\""vertical-align:middle\"">---朋友"",""<img src=\""../../test_img/15.png\"" width=150 style=\""vertical-align:middle\"">---自我"",""<img src=\""../../test_img/26.png\"" width=150 style=\""vertical-align:middle\"">---生人""]","","",""
"","","","","","html-keyboard-response","217","654877","0.0-9.0-0.0-0.0-0.0-1.53","null","<span style='color:GreenYellow; font-size: 70px;'>正确! </span>","null","","","","","","","","","","","","","","","","","","","","","","","","","feedback_test","",""
"","","","","","psychophysics","218","656389","0.0-9.0-0.0-0.0-0.0-0.54","500","","f","","","","","","","","","","","","","key","f","6.941395348837317","768","428","f","true","../../test_img/22.png","朋友","matching_task","朋友","[""<img src=\""../../test_img/22.png\"" width=150 style=\""vertical-align:middle\"">---朋友"",""<img src=\""../../test_img/15.png\"" width=150 style=\""vertical-align:middle\"">---自我"",""<img src=\""../../test_img/26.png\"" width=150 style=\""vertical-align:middle\"">---生人""]","","",""
"","","","","","html-keyboard-response","219","656902","0.0-9.0-0.0-0.0-0.0-1.54","null","<span style='color:GreenYellow; font-size: 70px;'>正确! </span>","null","","","","","","","","","","","","","","","","","","","","","","","","","feedback_test","",""
"","","","","","psychophysics","220","658532","0.0-9.0-0.0-0.0-0.0-0.55","615","","j","","","","","","","","","","","","","key","j","6.942564102563844","768","428","j","true","../../test_img/22.png","生人","matching_task","朋友","[""<img src=\""../../test_img/22.png\"" width=150 style=\""vertical-align:middle\"">---朋友"",""<img src=\""../../test_img/15.png\"" width=150 style=\""vertical-align:middle\"">---自我"",""<img src=\""../../test_img/26.png\"" width=150 style=\""vertical-align:middle\"">---生人""]","","",""
"","","","","","html-keyboard-response","221","659039","0.0-9.0-0.0-0.0-0.0-1.55","null","<span style='color:GreenYellow; font-size: 70px;'>正确! </span>","null","","","","","","","","","","","","","","","","","","","","","","","","","feedback_test","",""
"","","","","","psychophysics","222","660634","0.0-9.0-0.0-0.0-0.0-0.56","582","","j","","","","","","","","","","","","","key","j","6.942192982456426","768","428","j","true","../../test_img/15.png","朋友","matching_task","自我","[""<img src=\""../../test_img/22.png\"" width=150 style=\""vertical-align:middle\"">---朋友"",""<img src=\""../../test_img/15.png\"" width=150 style=\""vertical-align:middle\"">---自我"",""<img src=\""../../test_img/26.png\"" width=150 style=\""vertical-align:middle\"">---生人""]","","",""
"","","","","","html-keyboard-response","223","661141","0.0-9.0-0.0-0.0-0.0-1.56","null","<span style='color:GreenYellow; font-size: 70px;'>正确! </span>","null","","","","","","","","","","","","","","","","","","","","","","","","","feedback_test","",""
"","","","","","psychophysics","224","662727","0.0-9.0-0.0-0.0-0.0-0.57","463","","j","","","","","","","","","","","","","key","j","6.942202643171827","768","428","f","false","../../test_img/26.png","生人","matching_task","生人","[""<img src=\""../../test_img/22.png\"" width=150 style=\""vertical-align:middle\"">---朋友"",""<img src=\""../../test_img/15.png\"" width=150 style=\""vertical-align:middle\"">---自我"",""<img src=\""../../test_img/26.png\"" width=150 style=\""vertical-align:middle\"">---生人""]","","",""
"","","","","","html-keyboard-response","225","663272","0.0-9.0-0.0-0.0-0.0-1.57","null","<span style='color:red; font-size: 70px;'>错误! </span>","null","","","","","","","","","","","","","","","","","","","","","","","","","feedback_test","",""
"","","","","","psychophysics","226","664961","0.0-9.0-0.0-0.0-0.0-0.58","584","","j","","","","","","","","","","","","","key","j","6.9421487603305785","768","428","j","true","../../test_img/22.png","自我","matching_task","朋友","[""<img src=\""../../test_img/22.png\"" width=150 style=\""vertical-align:middle\"">---朋友"",""<img src=\""../../test_img/15.png\"" width=150 style=\""vertical-align:middle\"">---自我"",""<img src=\""../../test_img/26.png\"" width=150 style=\""vertical-align:middle\"">---生人""]","","",""
"","","","","","html-keyboard-response","227","665463","0.0-9.0-0.0-0.0-0.0-1.58","null","<span style='color:GreenYellow; font-size: 70px;'>正确! </span>","null","","","","","","","","","","","","","","","","","","","","","","","","","feedback_test","",""
"","","","","","psychophysics","228","667194","0.0-9.0-0.0-0.0-0.0-0.59","728","","f","","","","","","","","","","","","","key","f","6.9425806451613274","768","428","f","true","../../test_img/26.png","生人","matching_task","生人","[""<img src=\""../../test_img/22.png\"" width=150 style=\""vertical-align:middle\"">---朋友"",""<img src=\""../../test_img/15.png\"" width=150 style=\""vertical-align:middle\"">---自我"",""<img src=\""../../test_img/26.png\"" width=150 style=\""vertical-align:middle\"">---生人""]","","",""
"","","","","","html-keyboard-response","229","667698","0.0-9.0-0.0-0.0-0.0-1.59","null","<span style='color:GreenYellow; font-size: 70px;'>正确! </span>","null","","","","","","","","","","","","","","","","","","","","","","","","","feedback_test","",""
"","","","","","psychophysics","230","669483","0.0-9.0-0.0-0.0-0.0-0.60","772","","j","","","","","","","","","","","","","key","j","6.942500000000109","768","428","f","false","../../test_img/15.png","自我","matching_task","自我","[""<img src=\""../../test_img/22.png\"" width=150 style=\""vertical-align:middle\"">---朋友"",""<img src=\""../../test_img/15.png\"" width=150 style=\""vertical-align:middle\"">---自我"",""<img src=\""../../test_img/26.png\"" width=150 style=\""vertical-align:middle\"">---生人""]","","",""
"","","","","","html-keyboard-response","231","669986","0.0-9.0-0.0-0.0-0.0-1.60","null","<span style='color:red; font-size: 70px;'>错误! </span>","null","","","","","","","","","","","","","","","","","","","","","","","","","feedback_test","",""
"","","","","","psychophysics","232","671709","0.0-9.0-0.0-0.0-0.0-0.61","712","","f","","","","","","","","","","","","","key","f","6.942591093117201","768","428","f","true","../../test_img/26.png","生人","matching_task","生人","[""<img src=\""../../test_img/22.png\"" width=150 style=\""vertical-align:middle\"">---朋友"",""<img src=\""../../test_img/15.png\"" width=150 style=\""vertical-align:middle\"">---自我"",""<img src=\""../../test_img/26.png\"" width=150 style=\""vertical-align:middle\"">---生人""]","","",""
"","","","","","html-keyboard-response","233","672211","0.0-9.0-0.0-0.0-0.0-1.61","null","<span style='color:GreenYellow; font-size: 70px;'>正确! </span>","null","","","","","","","","","","","","","","","","","","","","","","","","","feedback_test","",""
"","","","","","psychophysics","234","673740","0.0-9.0-0.0-0.0-0.0-0.62","518","","f","","","","","","","","","","","","","key","f","6.9425570776252306","768","428","f","true","../../test_img/22.png","朋友","matching_task","朋友","[""<img src=\""../../test_img/22.png\"" width=150 style=\""vertical-align:middle\"">---朋友"",""<img src=\""../../test_img/15.png\"" width=150 style=\""vertical-align:middle\"">---自我"",""<img src=\""../../test_img/26.png\"" width=150 style=\""vertical-align:middle\"">---生人""]","","",""
"","","","","","html-keyboard-response","235","674246","0.0-9.0-0.0-0.0-0.0-1.62","null","<span style='color:GreenYellow; font-size: 70px;'>正确! </span>","null","","","","","","","","","","","","","","","","","","","","","","","","","feedback_test","",""
"","","","","","psychophysics","236","676138","0.0-9.0-0.0-0.0-0.0-0.63","880","","j","","","","","","","","","","","","","key","j","6.942583025830482","768","428","j","true","../../test_img/15.png","朋友","matching_task","自我","[""<img src=\""../../test_img/22.png\"" width=150 style=\""vertical-align:middle\"">---朋友"",""<img src=\""../../test_img/15.png\"" width=150 style=\""vertical-align:middle\"">---自我"",""<img src=\""../../test_img/26.png\"" width=150 style=\""vertical-align:middle\"">---生人""]","","",""
"","","","","","html-keyboard-response","237","676641","0.0-9.0-0.0-0.0-0.0-1.63","null","<span style='color:GreenYellow; font-size: 70px;'>正确! </span>","null","","","","","","","","","","","","","","","","","","","","","","","","","feedback_test","",""
"","","","","","psychophysics","238","678338","0.0-9.0-0.0-0.0-0.0-0.64","683","","f","","","","","","","","","","","","","key","f","6.942139917695722","768","428","f","true","../../test_img/26.png","生人","matching_task","生人","[""<img src=\""../../test_img/22.png\"" width=150 style=\""vertical-align:middle\"">---朋友"",""<img src=\""../../test_img/15.png\"" width=150 style=\""vertical-align:middle\"">---自我"",""<img src=\""../../test_img/26.png\"" width=150 style=\""vertical-align:middle\"">---生人""]","","",""
"","","","","","html-keyboard-response","239","678844","0.0-9.0-0.0-0.0-0.0-1.64","null","<span style='color:GreenYellow; font-size: 70px;'>正确! </span>","null","","","","","","","","","","","","","","","","","","","","","","","","","feedback_test","",""
"","","","","","psychophysics","240","680534","0.0-9.0-0.0-0.0-0.0-0.65","626","","j","","","","","","","","","","","","","key","j","7.241810344827486","768","428","j","true","../../test_img/22.png","生人","matching_task","朋友","[""<img src=\""../../test_img/22.png\"" width=150 style=\""vertical-align:middle\"">---朋友"",""<img src=\""../../test_img/15.png\"" width=150 style=\""vertical-align:middle\"">---自我"",""<img src=\""../../test_img/26.png\"" width=150 style=\""vertical-align:middle\"">---生人""]","","",""
"","","","","","html-keyboard-response","241","681043","0.0-9.0-0.0-0.0-0.0-1.65","null","<span style='color:GreenYellow; font-size: 70px;'>正确! </span>","null","","","","","","","","","","","","","","","","","","","","","","","","","feedback_test","",""
"","","","","","psychophysics","242","682678","0.0-9.0-0.0-0.0-0.0-0.66","628","","f","","","","","","","","","","","","","key","f","6.9413733905578","768","428","j","false","../../test_img/22.png","自我","matching_task","朋友","[""<img src=\""../../test_img/22.png\"" width=150 style=\""vertical-align:middle\"">---朋友"",""<img src=\""../../test_img/15.png\"" width=150 style=\""vertical-align:middle\"">---自我"",""<img src=\""../../test_img/26.png\"" width=150 style=\""vertical-align:middle\"">---生人""]","","",""
"","","","","","html-keyboard-response","243","683182","0.0-9.0-0.0-0.0-0.0-1.66","null","<span style='color:red; font-size: 70px;'>错误! </span>","null","","","","","","","","","","","","","","","","","","","","","","","","","feedback_test","",""
"","","","","","psychophysics","244","684852","0.0-9.0-0.0-0.0-0.0-0.67","550","","j","","","","","","","","","","","","","key","j","6.942259414226234","768","428","j","true","../../test_img/26.png","朋友","matching_task","生人","[""<img src=\""../../test_img/22.png\"" width=150 style=\""vertical-align:middle\"">---朋友"",""<img src=\""../../test_img/15.png\"" width=150 style=\""vertical-align:middle\"">---自我"",""<img src=\""../../test_img/26.png\"" width=150 style=\""vertical-align:middle\"">---生人""]","","",""
"","","","","","html-keyboard-response","245","685357","0.0-9.0-0.0-0.0-0.0-1.67","null","<span style='color:GreenYellow; font-size: 70px;'>正确! </span>","null","","","","","","","","","","","","","","","","","","","","","","","","","feedback_test","",""
"","","","","","psychophysics","246","687211","0.0-9.0-0.0-0.0-0.0-0.68","847","","j","","","","","","","","","","","","","key","j","6.942556390977776","768","428","f","false","../../test_img/15.png","自我","matching_task","自我","[""<img src=\""../../test_img/22.png\"" width=150 style=\""vertical-align:middle\"">---朋友"",""<img src=\""../../test_img/15.png\"" width=150 style=\""vertical-align:middle\"">---自我"",""<img src=\""../../test_img/26.png\"" width=150 style=\""vertical-align:middle\"">---生人""]","","",""
"","","","","","html-keyboard-response","247","687718","0.0-9.0-0.0-0.0-0.0-1.68","null","<span style='color:red; font-size: 70px;'>错误! </span>","null","","","","","","","","","","","","","","","","","","","","","","","","","feedback_test","",""
"","","","","","psychophysics","248","689384","0.0-9.0-0.0-0.0-0.0-0.69","656","","j","","","","","","","","","","","","","key","j","6.942521008403146","768","428","j","true","../../test_img/26.png","自我","matching_task","生人","[""<img src=\""../../test_img/22.png\"" width=150 style=\""vertical-align:middle\"">---朋友"",""<img src=\""../../test_img/15.png\"" width=150 style=\""vertical-align:middle\"">---自我"",""<img src=\""../../test_img/26.png\"" width=150 style=\""vertical-align:middle\"">---生人""]","","",""
"","","","","","html-keyboard-response","249","689898","0.0-9.0-0.0-0.0-0.0-1.69","null","<span style='color:GreenYellow; font-size: 70px;'>正确! </span>","null","","","","","","","","","","","","","","","","","","","","","","","","","feedback_test","",""
"","","","","","psychophysics","250","691429","0.0-9.0-0.0-0.0-0.0-0.70","419","","f","","","","","","","","","","","","","key","f","6.942465753424764","768","428","f","true","../../test_img/22.png","朋友","matching_task","朋友","[""<img src=\""../../test_img/22.png\"" width=150 style=\""vertical-align:middle\"">---朋友"",""<img src=\""../../test_img/15.png\"" width=150 style=\""vertical-align:middle\"">---自我"",""<img src=\""../../test_img/26.png\"" width=150 style=\""vertical-align:middle\"">---生人""]","","",""
"","","","","","html-keyboard-response","251","691941","0.0-9.0-0.0-0.0-0.0-1.70","null","<span style='color:GreenYellow; font-size: 70px;'>正确! </span>","null","","","","","","","","","","","","","","","","","","","","","","","","","feedback_test","",""
"","","","","","psychophysics","252","693605","0.0-9.0-0.0-0.0-0.0-0.71","581","","j","","","","","","","","","","","","","key","j","6.94260504201667","768","428","j","true","../../test_img/15.png","生人","matching_task","自我","[""<img src=\""../../test_img/22.png\"" width=150 style=\""vertical-align:middle\"">---朋友"",""<img src=\""../../test_img/15.png\"" width=150 style=\""vertical-align:middle\"">---自我"",""<img src=\""../../test_img/26.png\"" width=150 style=\""vertical-align:middle\"">---生人""]","","",""
"","","","","","html-keyboard-response","253","694112","0.0-9.0-0.0-0.0-0.0-1.71","null","<span style='color:GreenYellow; font-size: 70px;'>正确! </span>","null","","","","","","","","","","","","","","","","","","","","","","","","","feedback_test","",""
"","","","","","html-keyboard-response","254","698814","0.0-9.0-0.0-0.0-1.0","4700","<style>.context{color:white; font-size: 35px; line-height:40px}</style>                          <div><p class='context'>您正确回答了88% 的试次。</p><p class='context'>您的平均反应时为666毫秒。</p><p class='context'>请按任意键进入休息</p></div>"," ","","","","","","","","","","","","","","","","","","","","","","","","","","",""
"","","","","","html-button-response","255","730702","0.0-9.0-0.0-0.0-2.0","31888","
                    <p>知觉匹配任务中，您还剩余4组实验</p>
                    <p>现在是休息时间，当您结束休息后，您可以点击 结束休息 按钮 继续</p>
                    <p>建议休息时间还剩余<span id=""iii"">60</span>秒</p>","0","","","","","","","","","","","","","","","","","","","","","","","","","","",""
"","","","","","psychophysics","256","732394","0.0-9.0-0.0-0.0-0.1-0.72","684","","f","","","","","","","","","","","","","key","f","6.936528925619893","768","428","f","true","../../test_img/15.png","自我","matching_task","自我","[""<img src=\""../../test_img/22.png\"" width=150 style=\""vertical-align:middle\"">---朋友"",""<img src=\""../../test_img/15.png\"" width=150 style=\""vertical-align:middle\"">---自我"",""<img src=\""../../test_img/26.png\"" width=150 style=\""vertical-align:middle\"">---生人""]","","",""
"","","","","","html-keyboard-response","257","732897","0.0-9.0-0.0-0.0-0.1-1.72","null","<span style='color:GreenYellow; font-size: 70px;'>正确! </span>","null","","","","","","","","","","","","","","","","","","","","","","","","","feedback_test","",""
"","","","","","psychophysics","258","734446","0.0-9.0-0.0-0.0-0.1-0.73","539","","f","","","","","","","","","","","","","key","f","6.942522522522481","768","428","f","true","../../test_img/15.png","自我","matching_task","自我","[""<img src=\""../../test_img/22.png\"" width=150 style=\""vertical-align:middle\"">---朋友"",""<img src=\""../../test_img/15.png\"" width=150 style=\""vertical-align:middle\"">---自我"",""<img src=\""../../test_img/26.png\"" width=150 style=\""vertical-align:middle\"">---生人""]","","",""
"","","","","","html-keyboard-response","259","734947","0.0-9.0-0.0-0.0-0.1-1.73","null","<span style='color:GreenYellow; font-size: 70px;'>正确! </span>","null","","","","","","","","","","","","","","","","","","","","","","","","","feedback_test","",""
"","","","","","psychophysics","260","736554","0.0-9.0-0.0-0.0-0.1-0.74","599","","j","","","","","","","","","","","","","key","j","6.942347826086916","768","428","j","true","../../test_img/15.png","生人","matching_task","自我","[""<img src=\""../../test_img/22.png\"" width=150 style=\""vertical-align:middle\"">---朋友"",""<img src=\""../../test_img/15.png\"" width=150 style=\""vertical-align:middle\"">---自我"",""<img src=\""../../test_img/26.png\"" width=150 style=\""vertical-align:middle\"">---生人""]","","",""
"","","","","","html-keyboard-response","261","737061","0.0-9.0-0.0-0.0-0.1-1.74","null","<span style='color:GreenYellow; font-size: 70px;'>正确! </span>","null","","","","","","","","","","","","","","","","","","","","","","","","","feedback_test","",""
"","","","","","psychophysics","262","738626","0.0-9.0-0.0-0.0-0.1-0.75","554","","f","","","","","","","","","","","","","key","f","6.942400000000165","768","428","f","true","../../test_img/22.png","朋友","matching_task","朋友","[""<img src=\""../../test_img/22.png\"" width=150 style=\""vertical-align:middle\"">---朋友"",""<img src=\""../../test_img/15.png\"" width=150 style=\""vertical-align:middle\"">---自我"",""<img src=\""../../test_img/26.png\"" width=150 style=\""vertical-align:middle\"">---生人""]","","",""
"","","","","","html-keyboard-response","263","739130","0.0-9.0-0.0-0.0-0.1-1.75","null","<span style='color:GreenYellow; font-size: 70px;'>正确! </span>","null","","","","","","","","","","","","","","","","","","","","","","","","","feedback_test","",""
"","","","","","psychophysics","264","740686","0.0-9.0-0.0-0.0-0.1-0.76","543","","f","","","","","","","","","","","","","key","f","6.942511210762562","768","428","j","false","../../test_img/26.png","朋友","matching_task","生人","[""<img src=\""../../test_img/22.png\"" width=150 style=\""vertical-align:middle\"">---朋友"",""<img src=\""../../test_img/15.png\"" width=150 style=\""vertical-align:middle\"">---自我"",""<img src=\""../../test_img/26.png\"" width=150 style=\""vertical-align:middle\"">---生人""]","","",""
"","","","","","html-keyboard-response","265","741194","0.0-9.0-0.0-0.0-0.1-1.76","null","<span style='color:red; font-size: 70px;'>错误! </span>","null","","","","","","","","","","","","","","","","","","","","","","","","","feedback_test","",""
