"success","timeout","failed_images","failed_audio","failed_video","trial_type","trial_index","time_elapsed","internal_node_id","rt","stimulus","response","value","item_width_mm","item_height_mm","item_width_px","px2mm","view_dist_mm","item_width_deg","px2deg","scale_factor","win_width_deg","win_height_deg","view_history","response_type","key_press","avg_frame_time","center_x","center_y","correct_response","correct","Image","word","condition","shape","association","screen_id","LeftLable","RightLable"
"true","false","[]","[]","[]","preload","0","1421","0.0-0.0","","","","","","","","","","","","","","","","","","","","","","","","","","","","","",""
"","","","","","html-keyboard-response","1","23949","0.0-1.0","22522","
     <p>您好，欢迎参加本次实验。</p>
     <p>为充分保障您的权利，请确保您已经知晓并同意《参与实验同意书》以及《数据公开知情同意书》。</p>
     <p>如果您未见过上述内容，请咨询实验员。</p>
     <p>如果您选择继续实验，则表示您已经清楚两份知情同意书的内容并同意。</p>
     <p> <div style = ""color: green""><按任意键至下页></div> </p>
     "," ","","","","","","","","","","","","","","","","","","","","","","","","","","",""
"","","","","","html-keyboard-response","2","26377","0.0-2.0","2426","
     <p>本实验首先需要您填写一些基本个人信息。</p>
     <p> <div style = ""color: green""><按任意键至下页></div></p>
     "," ","","","","","","","","","","","","","","","","","","","","","","","","","","",""
"","","","","","call-function","3","26379","0.0-3.0-0.0","","","","","","","","","","","","","","","","","","","","","","","","","","","","","",""
"","","","","","survey-html-form","4","30721","0.0-3.0-1.0","4337","","{""Q0"":""10""}","","","","","","","","","","","","","","","","","","","","","","","","","","",""
"","","","","","html-button-response","5","32411","0.0-3.0-2.0","1681","<p style = 'color : white'>您的性别</p>","1","","","","","","","","","","","","","","","","","","","","","","","","","","",""
"","","","","","survey-html-form","6","38548","0.0-3.0-3.0","6135","","{""Q0"":""2001""}","","","","","","","","","","","","","","","","","","","","","","","","","","",""
"","","","","","survey-html-form","7","44838","0.0-3.0-4.0","6287","","{""Q0"":""6""}","","","","","","","","","","","","","","","","","","","","","","","","","","",""
"","","","","","virtual-chinrest","8","154905","0.0-4.0","110065","","","","85.6","53.98","545.4931080177031","6.372026480119456","448.19","10.909862160354061","50","0.8396073080819499","28.64","16.68","","","","","","","","","","","","","","","",""
"true","","","","","fullscreen","9","163877","0.0-5.0","","","","","","","","","","","","","","","","","","","","","","","","","","","","","",""
"","","","","","instructions","10","231920","0.0-6.0","68040","","","","","","","","","","","","","","[{""page_index"":0,""viewing_time"":20250},{""page_index"":1,""viewing_time"":20357},{""page_index"":2,""viewing_time"":13275},{""page_index"":3,""viewing_time"":5959},{""page_index"":4,""viewing_time"":8198}]","","","","","","","","","","","","","","",""
"","","","","","psychophysics","11","234382","0.0-7.0-0.0-0.0","1447","","arrowleft","","","","","","","","","","","","","key","arrowleft","16.78052413793108","720","476","arrowleft","true","../../test_img/19.png","生人","prac_matching_task","生人","[""<img src=\""../../test_img/19.png\"" width=150 style=\""vertical-align:middle\"">---生人"",""<img src=\""../../test_img/25.png\"" width=150 style=\""vertical-align:middle\"">---自我"",""<img src=\""../../test_img/12.png\"" width=150 style=\""vertical-align:middle\"">---朋友""]","","",""
"","","","","","html-keyboard-response","12","234685","0.0-7.0-0.0-1.0","null","<span style='color:GreenYellow; font-size: 70px;'>正确! </span>","null","","","","","","","","","","","","","","","","","","","","","","","","","feedback_test","",""
"","","","","","psychophysics","13","237040","0.0-7.0-0.0-0.1","1332","","arrowright","","","","","","","","","","","","","key","arrowright","16.666428571428696","720","476","arrowright","true","../../test_img/19.png","自我","prac_matching_task","生人","[""<img src=\""../../test_img/19.png\"" width=150 style=\""vertical-align:middle\"">---生人"",""<img src=\""../../test_img/25.png\"" width=150 style=\""vertical-align:middle\"">---自我"",""<img src=\""../../test_img/12.png\"" width=150 style=\""vertical-align:middle\"">---朋友""]","","",""
"","","","","","html-keyboard-response","14","237356","0.0-7.0-0.0-1.1","null","<span style='color:GreenYellow; font-size: 70px;'>正确! </span>","null","","","","","","","","","","","","","","","","","","","","","","","","","feedback_test","",""
"","","","","","psychophysics","15","239564","0.0-7.0-0.0-0.2","1196","","arrowleft","","","","","","","","","","","","","key","arrowleft","16.665648854961923","720","476","arrowright","false","../../test_img/12.png","生人","prac_matching_task","朋友","[""<img src=\""../../test_img/19.png\"" width=150 style=\""vertical-align:middle\"">---生人"",""<img src=\""../../test_img/25.png\"" width=150 style=\""vertical-align:middle\"">---自我"",""<img src=\""../../test_img/12.png\"" width=150 style=\""vertical-align:middle\"">---朋友""]","","",""
"","","","","","html-keyboard-response","16","239877","0.0-7.0-0.0-1.2","null","<span style='color:red; font-size: 70px;'>错误! </span>","null","","","","","","","","","","","","","","","","","","","","","","","","","feedback_test","",""
"","","","","","psychophysics","17","242030","0.0-7.0-0.0-0.3","1146","","arrowleft","","","","","","","","","","","","","key","arrowleft","16.667187499999955","720","476","arrowleft","true","../../test_img/25.png","自我","prac_matching_task","自我","[""<img src=\""../../test_img/19.png\"" width=150 style=\""vertical-align:middle\"">---生人"",""<img src=\""../../test_img/25.png\"" width=150 style=\""vertical-align:middle\"">---自我"",""<img src=\""../../test_img/12.png\"" width=150 style=\""vertical-align:middle\"">---朋友""]","","",""
"","","","","","html-keyboard-response","18","242338","0.0-7.0-0.0-1.3","null","<span style='color:GreenYellow; font-size: 70px;'>正确! </span>","null","","","","","","","","","","","","","","","","","","","","","","","","","feedback_test","",""
"","","","","","psychophysics","19","244433","0.0-7.0-0.0-0.4","1082","","arrowright","","","","","","","","","","","","","key","arrowright","16.66774193548378","720","476","arrowright","true","../../test_img/12.png","自我","prac_matching_task","朋友","[""<img src=\""../../test_img/19.png\"" width=150 style=\""vertical-align:middle\"">---生人"",""<img src=\""../../test_img/25.png\"" width=150 style=\""vertical-align:middle\"">---自我"",""<img src=\""../../test_img/12.png\"" width=150 style=\""vertical-align:middle\"">---朋友""]","","",""
"","","","","","html-keyboard-response","20","244738","0.0-7.0-0.0-1.4","null","<span style='color:GreenYellow; font-size: 70px;'>正确! </span>","null","","","","","","","","","","","","","","","","","","","","","","","","","feedback_test","",""
"","","","","","psychophysics","21","246768","0.0-7.0-0.0-0.5","1017","","arrowleft","","","","","","","","","","","","","key","arrowleft","16.665000000000145","720","476","arrowleft","true","../../test_img/25.png","自我","prac_matching_task","自我","[""<img src=\""../../test_img/19.png\"" width=150 style=\""vertical-align:middle\"">---生人"",""<img src=\""../../test_img/25.png\"" width=150 style=\""vertical-align:middle\"">---自我"",""<img src=\""../../test_img/12.png\"" width=150 style=\""vertical-align:middle\"">---朋友""]","","",""
"","","","","","html-keyboard-response","22","247076","0.0-7.0-0.0-1.5","null","<span style='color:GreenYellow; font-size: 70px;'>正确! </span>","null","","","","","","","","","","","","","","","","","","","","","","","","","feedback_test","",""
"","","","","","psychophysics","23","248987","0.0-7.0-0.0-0.6","902","","arrowleft","","","","","","","","","","","","","key","arrowleft","16.667543859649175","720","476","arrowleft","true","../../test_img/12.png","朋友","prac_matching_task","朋友","[""<img src=\""../../test_img/19.png\"" width=150 style=\""vertical-align:middle\"">---生人"",""<img src=\""../../test_img/25.png\"" width=150 style=\""vertical-align:middle\"">---自我"",""<img src=\""../../test_img/12.png\"" width=150 style=\""vertical-align:middle\"">---朋友""]","","",""
"","","","","","html-keyboard-response","24","249303","0.0-7.0-0.0-1.6","null","<span style='color:GreenYellow; font-size: 70px;'>正确! </span>","null","","","","","","","","","","","","","","","","","","","","","","","","","feedback_test","",""
"","","","","","psychophysics","25","251322","0.0-7.0-0.0-0.7","1005","","arrowright","","","","","","","","","","","","","key","arrowright","16.66750000000005","720","476","arrowright","true","../../test_img/19.png","朋友","prac_matching_task","生人","[""<img src=\""../../test_img/19.png\"" width=150 style=\""vertical-align:middle\"">---生人"",""<img src=\""../../test_img/25.png\"" width=150 style=\""vertical-align:middle\"">---自我"",""<img src=\""../../test_img/12.png\"" width=150 style=\""vertical-align:middle\"">---朋友""]","","",""
"","","","","","html-keyboard-response","26","251628","0.0-7.0-0.0-1.7","null","<span style='color:GreenYellow; font-size: 70px;'>正确! </span>","null","","","","","","","","","","","","","","","","","","","","","","","","","feedback_test","",""
"","","","","","psychophysics","27","253355","0.0-7.0-0.0-0.8","720","","arrowleft","","","","","","","","","","","","","key","arrowleft","16.66699029126225","720","476","arrowleft","true","../../test_img/19.png","生人","prac_matching_task","生人","[""<img src=\""../../test_img/19.png\"" width=150 style=\""vertical-align:middle\"">---生人"",""<img src=\""../../test_img/25.png\"" width=150 style=\""vertical-align:middle\"">---自我"",""<img src=\""../../test_img/12.png\"" width=150 style=\""vertical-align:middle\"">---朋友""]","","",""
"","","","","","html-keyboard-response","28","253668","0.0-7.0-0.0-1.8","null","<span style='color:GreenYellow; font-size: 70px;'>正确! </span>","null","","","","","","","","","","","","","","","","","","","","","","","","","feedback_test","",""
"","","","","","psychophysics","29","255645","0.0-7.0-0.0-0.9","974","","arrowright","","","","","","","","","","","","","key","arrowright","16.665811965812164","720","476","arrowright","true","../../test_img/25.png","朋友","prac_matching_task","自我","[""<img src=\""../../test_img/19.png\"" width=150 style=\""vertical-align:middle\"">---生人"",""<img src=\""../../test_img/25.png\"" width=150 style=\""vertical-align:middle\"">---自我"",""<img src=\""../../test_img/12.png\"" width=150 style=\""vertical-align:middle\"">---朋友""]","","",""
"","","","","","html-keyboard-response","30","255957","0.0-7.0-0.0-1.9","null","<span style='color:GreenYellow; font-size: 70px;'>正确! </span>","null","","","","","","","","","","","","","","","","","","","","","","","","","feedback_test","",""
"","","","","","psychophysics","31","257878","0.0-7.0-0.0-0.10","910","","arrowright","","","","","","","","","","","","","key","arrowright","16.666666666666668","720","476","arrowright","true","../../test_img/25.png","生人","prac_matching_task","自我","[""<img src=\""../../test_img/19.png\"" width=150 style=\""vertical-align:middle\"">---生人"",""<img src=\""../../test_img/25.png\"" width=150 style=\""vertical-align:middle\"">---自我"",""<img src=\""../../test_img/12.png\"" width=150 style=\""vertical-align:middle\"">---朋友""]","","",""
"","","","","","html-keyboard-response","32","258183","0.0-7.0-0.0-1.10","null","<span style='color:GreenYellow; font-size: 70px;'>正确! </span>","null","","","","","","","","","","","","","","","","","","","","","","","","","feedback_test","",""
"","","","","","psychophysics","33","260007","0.0-7.0-0.0-0.11","821","","arrowright","","","","","","","","","","","","","key","arrowright","16.665740740740958","720","476","arrowleft","false","../../test_img/12.png","朋友","prac_matching_task","朋友","[""<img src=\""../../test_img/19.png\"" width=150 style=\""vertical-align:middle\"">---生人"",""<img src=\""../../test_img/25.png\"" width=150 style=\""vertical-align:middle\"">---自我"",""<img src=\""../../test_img/12.png\"" width=150 style=\""vertical-align:middle\"">---朋友""]","","",""
"","","","","","html-keyboard-response","34","260322","0.0-7.0-0.0-1.11","null","<span style='color:red; font-size: 70px;'>错误! </span>","null","","","","","","","","","","","","","","","","","","","","","","","","","feedback_test","",""
"","","","","","psychophysics","35","262688","0.0-7.0-0.0-0.12","1353","","arrowleft","","","","","","","","","","","","","key","arrowleft","16.665957446808676","720","476","arrowright","false","../../test_img/19.png","朋友","prac_matching_task","生人","[""<img src=\""../../test_img/19.png\"" width=150 style=\""vertical-align:middle\"">---生人"",""<img src=\""../../test_img/25.png\"" width=150 style=\""vertical-align:middle\"">---自我"",""<img src=\""../../test_img/12.png\"" width=150 style=\""vertical-align:middle\"">---朋友""]","","",""
"","","","","","html-keyboard-response","36","262992","0.0-7.0-0.0-1.12","null","<span style='color:red; font-size: 70px;'>错误! </span>","null","","","","","","","","","","","","","","","","","","","","","","","","","feedback_test","",""
"","","","","","psychophysics","37","265073","0.0-7.0-0.0-0.13","1078","","arrowright","","","","","","","","","","","","","key","arrowright","16.666129032258347","720","476","arrowright","true","../../test_img/25.png","生人","prac_matching_task","自我","[""<img src=\""../../test_img/19.png\"" width=150 style=\""vertical-align:middle\"">---生人"",""<img src=\""../../test_img/25.png\"" width=150 style=\""vertical-align:middle\"">---自我"",""<img src=\""../../test_img/12.png\"" width=150 style=\""vertical-align:middle\"">---朋友""]","","",""
"","","","","","html-keyboard-response","38","265384","0.0-7.0-0.0-1.13","null","<span style='color:GreenYellow; font-size: 70px;'>正确! </span>","null","","","","","","","","","","","","","","","","","","","","","","","","","feedback_test","",""
"","","","","","psychophysics","39","267530","0.0-7.0-0.0-0.14","1141","","arrowleft","","","","","","","","","","","","","key","arrowleft","16.66614173228374","720","476","arrowright","false","../../test_img/19.png","自我","prac_matching_task","生人","[""<img src=\""../../test_img/19.png\"" width=150 style=\""vertical-align:middle\"">---生人"",""<img src=\""../../test_img/25.png\"" width=150 style=\""vertical-align:middle\"">---自我"",""<img src=\""../../test_img/12.png\"" width=150 style=\""vertical-align:middle\"">---朋友""]","","",""
"","","","","","html-keyboard-response","40","267845","0.0-7.0-0.0-1.14","null","<span style='color:red; font-size: 70px;'>错误! </span>","null","","","","","","","","","","","","","","","","","","","","","","","","","feedback_test","",""
"","","","","","psychophysics","41","270109","0.0-7.0-0.0-0.15","1262","","arrowright","","","","","","","","","","","","","key","arrowright","16.667407407407236","720","476","arrowright","true","../../test_img/12.png","自我","prac_matching_task","朋友","[""<img src=\""../../test_img/19.png\"" width=150 style=\""vertical-align:middle\"">---生人"",""<img src=\""../../test_img/25.png\"" width=150 style=\""vertical-align:middle\"">---自我"",""<img src=\""../../test_img/12.png\"" width=150 style=\""vertical-align:middle\"">---朋友""]","","",""
"","","","","","html-keyboard-response","42","270422","0.0-7.0-0.0-1.15","null","<span style='color:GreenYellow; font-size: 70px;'>正确! </span>","null","","","","","","","","","","","","","","","","","","","","","","","","","feedback_test","",""
"","","","","","psychophysics","43","272830","0.0-7.0-0.0-0.16","1396","","arrowright","","","","","","","","","","","","","key","arrowright","16.665034965034803","720","476","arrowleft","false","../../test_img/19.png","生人","prac_matching_task","生人","[""<img src=\""../../test_img/19.png\"" width=150 style=\""vertical-align:middle\"">---生人"",""<img src=\""../../test_img/25.png\"" width=150 style=\""vertical-align:middle\"">---自我"",""<img src=\""../../test_img/12.png\"" width=150 style=\""vertical-align:middle\"">---朋友""]","","",""
"","","","","","html-keyboard-response","44","273139","0.0-7.0-0.0-1.16","null","<span style='color:red; font-size: 70px;'>错误! </span>","null","","","","","","","","","","","","","","","","","","","","","","","","","feedback_test","",""
"","","","","","psychophysics","45","275060","0.0-7.0-0.0-0.17","918","","arrowleft","","","","","","","","","","","","","key","arrowleft","16.66637168141634","720","476","arrowleft","true","../../test_img/25.png","自我","prac_matching_task","自我","[""<img src=\""../../test_img/19.png\"" width=150 style=\""vertical-align:middle\"">---生人"",""<img src=\""../../test_img/25.png\"" width=150 style=\""vertical-align:middle\"">---自我"",""<img src=\""../../test_img/12.png\"" width=150 style=\""vertical-align:middle\"">---朋友""]","","",""
"","","","","","html-keyboard-response","46","275362","0.0-7.0-0.0-1.17","null","<span style='color:GreenYellow; font-size: 70px;'>正确! </span>","null","","","","","","","","","","","","","","","","","","","","","","","","","feedback_test","",""
"","","","","","psychophysics","47","277587","0.0-7.0-0.0-0.18","1220","","arrowright","","","","","","","","","","","","","key","arrowright","16.66616541353366","720","476","arrowleft","false","../../test_img/19.png","生人","prac_matching_task","生人","[""<img src=\""../../test_img/19.png\"" width=150 style=\""vertical-align:middle\"">---生人"",""<img src=\""../../test_img/25.png\"" width=150 style=\""vertical-align:middle\"">---自我"",""<img src=\""../../test_img/12.png\"" width=150 style=\""vertical-align:middle\"">---朋友""]","","",""
"","","","","","html-keyboard-response","48","277904","0.0-7.0-0.0-1.18","null","<span style='color:red; font-size: 70px;'>错误! </span>","null","","","","","","","","","","","","","","","","","","","","","","","","","feedback_test","",""
"","","","","","psychophysics","49","279929","0.0-7.0-0.0-0.19","1019","","arrowright","","","","","","","","","","","","","key","arrowright","16.667049999999776","720","476","arrowright","true","../../test_img/25.png","朋友","prac_matching_task","自我","[""<img src=\""../../test_img/19.png\"" width=150 style=\""vertical-align:middle\"">---生人"",""<img src=\""../../test_img/25.png\"" width=150 style=\""vertical-align:middle\"">---自我"",""<img src=\""../../test_img/12.png\"" width=150 style=\""vertical-align:middle\"">---朋友""]","","",""
"","","","","","html-keyboard-response","50","280234","0.0-7.0-0.0-1.19","null","<span style='color:GreenYellow; font-size: 70px;'>正确! </span>","null","","","","","","","","","","","","","","","","","","","","","","","","","feedback_test","",""
"","","","","","psychophysics","51","282516","0.0-7.0-0.0-0.20","1272","","arrowright","","","","","","","","","","","","","key","arrowright","16.6651851851851","720","476","arrowleft","false","../../test_img/12.png","朋友","prac_matching_task","朋友","[""<img src=\""../../test_img/19.png\"" width=150 style=\""vertical-align:middle\"">---生人"",""<img src=\""../../test_img/25.png\"" width=150 style=\""vertical-align:middle\"">---自我"",""<img src=\""../../test_img/12.png\"" width=150 style=\""vertical-align:middle\"">---朋友""]","","",""
"","","","","","html-keyboard-response","52","282819","0.0-7.0-0.0-1.20","null","<span style='color:red; font-size: 70px;'>错误! </span>","null","","","","","","","","","","","","","","","","","","","","","","","","","feedback_test","",""
"","","","","","psychophysics","53","284708","0.0-7.0-0.0-0.21","873","","arrowleft","","","","","","","","","","","","","key","arrowleft","16.66607142857174","720","476","arrowleft","true","../../test_img/25.png","自我","prac_matching_task","自我","[""<img src=\""../../test_img/19.png\"" width=150 style=\""vertical-align:middle\"">---生人"",""<img src=\""../../test_img/25.png\"" width=150 style=\""vertical-align:middle\"">---自我"",""<img src=\""../../test_img/12.png\"" width=150 style=\""vertical-align:middle\"">---朋友""]","","",""
"","","","","","html-keyboard-response","54","285021","0.0-7.0-0.0-1.21","null","<span style='color:GreenYellow; font-size: 70px;'>正确! </span>","null","","","","","","","","","","","","","","","","","","","","","","","","","feedback_test","",""
"","","","","","psychophysics","55","287392","0.0-7.0-0.0-0.22","1359","","arrowleft","","","","","","","","","","","","","key","arrowleft","16.669503546099044","720","476","arrowright","false","../../test_img/12.png","生人","prac_matching_task","朋友","[""<img src=\""../../test_img/19.png\"" width=150 style=\""vertical-align:middle\"">---生人"",""<img src=\""../../test_img/25.png\"" width=150 style=\""vertical-align:middle\"">---自我"",""<img src=\""../../test_img/12.png\"" width=150 style=\""vertical-align:middle\"">---朋友""]","","",""
"","","","","","html-keyboard-response","56","287710","0.0-7.0-0.0-1.22","null","<span style='color:red; font-size: 70px;'>错误! </span>","null","","","","","","","","","","","","","","","","","","","","","","","","","feedback_test","",""
"","","","","","psychophysics","57","289973","0.0-7.0-0.0-0.23","1255","","arrowright","","","","","","","","","","","","","key","arrowright","16.666666666666668","720","476","arrowleft","false","../../test_img/12.png","朋友","prac_matching_task","朋友","[""<img src=\""../../test_img/19.png\"" width=150 style=\""vertical-align:middle\"">---生人"",""<img src=\""../../test_img/25.png\"" width=150 style=\""vertical-align:middle\"">---自我"",""<img src=\""../../test_img/12.png\"" width=150 style=\""vertical-align:middle\"">---朋友""]","","",""
"","","","","","html-keyboard-response","58","290278","0.0-7.0-0.0-1.23","null","<span style='color:red; font-size: 70px;'>错误! </span>","null","","","","","","","","","","","","","","","","","","","","","","","","","feedback_test","",""
"","","","","","html-keyboard-response","59","299834","0.0-7.0-1.0-0.0","9551","<style>.context{color:white; font-size: 35px; line-height:40px}</style>                          <div><p class='context'>您正确回答了63% 的试次。</p ><p class='context'>您的平均反应时为1046毫秒。</p >"," ","","","","","","","","","","","","","","","","","","","","","","","","","","",""
"","","","","","instructions","60","339623","0.0-7.0-1.0-1.0","39787","","","","","","","","","","","","","","[{""page_index"":0,""viewing_time"":3249},{""page_index"":1,""viewing_time"":28802},{""page_index"":2,""viewing_time"":5870},{""page_index"":3,""viewing_time"":1865}]","","","","","","","","","","","","","","",""
"","","","","","psychophysics","61","341613","0.0-7.1-0.1-0.24","984","","arrowleft","","","","","","","","","","","","","key","arrowleft","16.667796610169393","720","476","arrowleft","true","../../test_img/19.png","生人","prac_matching_task","生人","[""<img src=\""../../test_img/19.png\"" width=150 style=\""vertical-align:middle\"">---生人"",""<img src=\""../../test_img/25.png\"" width=150 style=\""vertical-align:middle\"">---自我"",""<img src=\""../../test_img/12.png\"" width=150 style=\""vertical-align:middle\"">---朋友""]","","",""
"","","","","","html-keyboard-response","62","341921","0.0-7.1-0.1-1.24","null","<span style='color:GreenYellow; font-size: 70px;'>正确! </span>","null","","","","","","","","","","","","","","","","","","","","","","","","","feedback_test","",""
"","","","","","psychophysics","63","343734","0.0-7.1-0.1-0.25","802","","arrowleft","","","","","","","","","","","","","key","arrowleft","16.665740740740418","720","476","arrowright","false","../../test_img/25.png","朋友","prac_matching_task","自我","[""<img src=\""../../test_img/19.png\"" width=150 style=\""vertical-align:middle\"">---生人"",""<img src=\""../../test_img/25.png\"" width=150 style=\""vertical-align:middle\"">---自我"",""<img src=\""../../test_img/12.png\"" width=150 style=\""vertical-align:middle\"">---朋友""]","","",""
"","","","","","html-keyboard-response","64","344037","0.0-7.1-0.1-1.25","null","<span style='color:red; font-size: 70px;'>错误! </span>","null","","","","","","","","","","","","","","","","","","","","","","","","","feedback_test","",""
"","","","","","psychophysics","65","345711","0.0-7.1-0.1-0.26","661","","arrowleft","","","","","","","","","","","","","key","arrowleft","16.666666666666668","720","476","arrowleft","true","../../test_img/25.png","自我","prac_matching_task","自我","[""<img src=\""../../test_img/19.png\"" width=150 style=\""vertical-align:middle\"">---生人"",""<img src=\""../../test_img/25.png\"" width=150 style=\""vertical-align:middle\"">---自我"",""<img src=\""../../test_img/12.png\"" width=150 style=\""vertical-align:middle\"">---朋友""]","","",""
"","","","","","html-keyboard-response","66","346013","0.0-7.1-0.1-1.26","null","<span style='color:GreenYellow; font-size: 70px;'>正确! </span>","null","","","","","","","","","","","","","","","","","","","","","","","","","feedback_test","",""
"","","","","","psychophysics","67","348007","0.0-7.1-0.1-0.27","990","","arrowleft","","","","","","","","","","","","","key","arrowleft","16.665254237288135","720","476","arrowleft","true","../../test_img/12.png","朋友","prac_matching_task","朋友","[""<img src=\""../../test_img/19.png\"" width=150 style=\""vertical-align:middle\"">---生人"",""<img src=\""../../test_img/25.png\"" width=150 style=\""vertical-align:middle\"">---自我"",""<img src=\""../../test_img/12.png\"" width=150 style=\""vertical-align:middle\"">---朋友""]","","",""
"","","","","","html-keyboard-response","68","348322","0.0-7.1-0.1-1.27","null","<span style='color:GreenYellow; font-size: 70px;'>正确! </span>","null","","","","","","","","","","","","","","","","","","","","","","","","","feedback_test","",""
"","","","","","psychophysics","69","350396","0.0-7.1-0.1-0.28","1064","","arrowright","","","","","","","","","","","","","key","arrowright","16.66504065040641","720","476","arrowright","true","../../test_img/12.png","自我","prac_matching_task","朋友","[""<img src=\""../../test_img/19.png\"" width=150 style=\""vertical-align:middle\"">---生人"",""<img src=\""../../test_img/25.png\"" width=150 style=\""vertical-align:middle\"">---自我"",""<img src=\""../../test_img/12.png\"" width=150 style=\""vertical-align:middle\"">---朋友""]","","",""
"","","","","","html-keyboard-response","70","350711","0.0-7.1-0.1-1.28","null","<span style='color:GreenYellow; font-size: 70px;'>正确! </span>","null","","","","","","","","","","","","","","","","","","","","","","","","","feedback_test","",""
"","","","","","psychophysics","71","352662","0.0-7.1-0.1-0.29","946","","arrowright","","","","","","","","","","","","","key","arrowright","16.664655172413593","720","476","arrowleft","false","../../test_img/12.png","朋友","prac_matching_task","朋友","[""<img src=\""../../test_img/19.png\"" width=150 style=\""vertical-align:middle\"">---生人"",""<img src=\""../../test_img/25.png\"" width=150 style=\""vertical-align:middle\"">---自我"",""<img src=\""../../test_img/12.png\"" width=150 style=\""vertical-align:middle\"">---朋友""]","","",""
"","","","","","html-keyboard-response","72","352973","0.0-7.1-0.1-1.29","null","<span style='color:red; font-size: 70px;'>错误! </span>","null","","","","","","","","","","","","","","","","","","","","","","","","","feedback_test","",""
"","","","","","psychophysics","73","355313","0.0-7.1-0.1-0.30","1330","","arrowright","","","","","","","","","","","","","key","arrowright","16.665467625899282","720","476","arrowright","true","../../test_img/19.png","朋友","prac_matching_task","生人","[""<img src=\""../../test_img/19.png\"" width=150 style=\""vertical-align:middle\"">---生人"",""<img src=\""../../test_img/25.png\"" width=150 style=\""vertical-align:middle\"">---自我"",""<img src=\""../../test_img/12.png\"" width=150 style=\""vertical-align:middle\"">---朋友""]","","",""
"","","","","","html-keyboard-response","74","355619","0.0-7.1-0.1-1.30","null","<span style='color:GreenYellow; font-size: 70px;'>正确! </span>","null","","","","","","","","","","","","","","","","","","","","","","","","","feedback_test","",""
"","","","","","psychophysics","75","357808","0.0-7.1-0.1-0.31","1179","","arrowright","","","","","","","","","","","","","key","arrowright","16.666923076923165","720","476","arrowright","true","../../test_img/19.png","自我","prac_matching_task","生人","[""<img src=\""../../test_img/19.png\"" width=150 style=\""vertical-align:middle\"">---生人"",""<img src=\""../../test_img/25.png\"" width=150 style=\""vertical-align:middle\"">---自我"",""<img src=\""../../test_img/12.png\"" width=150 style=\""vertical-align:middle\"">---朋友""]","","",""
"","","","","","html-keyboard-response","76","358114","0.0-7.1-0.1-1.31","null","<span style='color:GreenYellow; font-size: 70px;'>正确! </span>","null","","","","","","","","","","","","","","","","","","","","","","","","","feedback_test","",""
"","","","","","psychophysics","77","359822","0.0-7.1-0.1-0.32","696","","arrowleft","","","","","","","","","","","","","key","arrowleft","16.66534653465358","720","476","arrowleft","true","../../test_img/25.png","自我","prac_matching_task","自我","[""<img src=\""../../test_img/19.png\"" width=150 style=\""vertical-align:middle\"">---生人"",""<img src=\""../../test_img/25.png\"" width=150 style=\""vertical-align:middle\"">---自我"",""<img src=\""../../test_img/12.png\"" width=150 style=\""vertical-align:middle\"">---朋友""]","","",""
"","","","","","html-keyboard-response","78","360130","0.0-7.1-0.1-1.32","null","<span style='color:GreenYellow; font-size: 70px;'>正确! </span>","null","","","","","","","","","","","","","","","","","","","","","","","","","feedback_test","",""
"","","","","","psychophysics","79","362035","0.0-7.1-0.1-0.33","902","","arrowleft","","","","","","","","","","","","","key","arrowleft","16.668141592920353","720","476","arrowleft","true","../../test_img/19.png","生人","prac_matching_task","生人","[""<img src=\""../../test_img/19.png\"" width=150 style=\""vertical-align:middle\"">---生人"",""<img src=\""../../test_img/25.png\"" width=150 style=\""vertical-align:middle\"">---自我"",""<img src=\""../../test_img/12.png\"" width=150 style=\""vertical-align:middle\"">---朋友""]","","",""
"","","","","","html-keyboard-response","80","362346","0.0-7.1-0.1-1.33","null","<span style='color:GreenYellow; font-size: 70px;'>正确! </span>","null","","","","","","","","","","","","","","","","","","","","","","","","","feedback_test","",""
"","","","","","psychophysics","81","364401","0.0-7.1-0.1-0.34","1050","","arrowright","","","","","","","","","","","","","key","arrowright","16.666393442622855","720","476","arrowright","true","../../test_img/12.png","生人","prac_matching_task","朋友","[""<img src=\""../../test_img/19.png\"" width=150 style=\""vertical-align:middle\"">---生人"",""<img src=\""../../test_img/25.png\"" width=150 style=\""vertical-align:middle\"">---自我"",""<img src=\""../../test_img/12.png\"" width=150 style=\""vertical-align:middle\"">---朋友""]","","",""
"","","","","","html-keyboard-response","82","364717","0.0-7.1-0.1-1.34","null","<span style='color:GreenYellow; font-size: 70px;'>正确! </span>","null","","","","","","","","","","","","","","","","","","","","","","","","","feedback_test","",""
"","","","","","psychophysics","83","366754","0.0-7.1-0.1-0.35","1025","","arrowright","","","","","","","","","","","","","key","arrowright","16.668595041322025","720","476","arrowright","true","../../test_img/25.png","生人","prac_matching_task","自我","[""<img src=\""../../test_img/19.png\"" width=150 style=\""vertical-align:middle\"">---生人"",""<img src=\""../../test_img/25.png\"" width=150 style=\""vertical-align:middle\"">---自我"",""<img src=\""../../test_img/12.png\"" width=150 style=\""vertical-align:middle\"">---朋友""]","","",""
"","","","","","html-keyboard-response","84","367059","0.0-7.1-0.1-1.35","null","<span style='color:GreenYellow; font-size: 70px;'>正确! </span>","null","","","","","","","","","","","","","","","","","","","","","","","","","feedback_test","",""
"","","","","","psychophysics","85","369222","0.0-7.1-0.1-0.36","1157","","arrowright","","","","","","","","","","","","","key","arrowright","16.666666666666668","720","476","arrowright","true","../../test_img/19.png","自我","prac_matching_task","生人","[""<img src=\""../../test_img/19.png\"" width=150 style=\""vertical-align:middle\"">---生人"",""<img src=\""../../test_img/25.png\"" width=150 style=\""vertical-align:middle\"">---自我"",""<img src=\""../../test_img/12.png\"" width=150 style=\""vertical-align:middle\"">---朋友""]","","",""
"","","","","","html-keyboard-response","86","369532","0.0-7.1-0.1-1.36","null","<span style='color:GreenYellow; font-size: 70px;'>正确! </span>","null","","","","","","","","","","","","","","","","","","","","","","","","","feedback_test","",""
"","","","","","psychophysics","87","371535","0.0-7.1-0.1-0.37","1001","","arrowright","","","","","","","","","","","","","key","arrowright","16.66386554621849","720","476","arrowright","true","../../test_img/25.png","生人","prac_matching_task","自我","[""<img src=\""../../test_img/19.png\"" width=150 style=\""vertical-align:middle\"">---生人"",""<img src=\""../../test_img/25.png\"" width=150 style=\""vertical-align:middle\"">---自我"",""<img src=\""../../test_img/12.png\"" width=150 style=\""vertical-align:middle\"">---朋友""]","","",""
"","","","","","html-keyboard-response","88","371845","0.0-7.1-0.1-1.37","null","<span style='color:GreenYellow; font-size: 70px;'>正确! </span>","null","","","","","","","","","","","","","","","","","","","","","","","","","feedback_test","",""
"","","","","","psychophysics","89","374017","0.0-7.1-0.1-0.38","1169","","arrowleft","","","","","","","","","","","","","key","arrowleft","16.666153846154113","720","476","arrowleft","true","../../test_img/12.png","朋友","prac_matching_task","朋友","[""<img src=\""../../test_img/19.png\"" width=150 style=\""vertical-align:middle\"">---生人"",""<img src=\""../../test_img/25.png\"" width=150 style=\""vertical-align:middle\"">---自我"",""<img src=\""../../test_img/12.png\"" width=150 style=\""vertical-align:middle\"">---朋友""]","","",""
"","","","","","html-keyboard-response","90","374321","0.0-7.1-0.1-1.38","null","<span style='color:GreenYellow; font-size: 70px;'>正确! </span>","null","","","","","","","","","","","","","","","","","","","","","","","","","feedback_test","",""
"","","","","","psychophysics","91","376840","0.0-7.1-0.1-0.39","null","","null","","","","","","","","","","","","","key","null","16.666000000000157","720","476","arrowleft","false","../../test_img/19.png","生人","prac_matching_task","生人","[""<img src=\""../../test_img/19.png\"" width=150 style=\""vertical-align:middle\"">---生人"",""<img src=\""../../test_img/25.png\"" width=150 style=\""vertical-align:middle\"">---自我"",""<img src=\""../../test_img/12.png\"" width=150 style=\""vertical-align:middle\"">---朋友""]","","",""
"","","","","","html-keyboard-response","92","377143","0.0-7.1-0.1-1.39","null","<span class='add_' style='color:yellow; font-size: 70px;'> 太慢! </span>","null","","","","","","","","","","","","","","","","","","","","","","","","","feedback_test","",""
"","","","","","psychophysics","93","379415","0.0-7.1-0.1-0.40","1267","","arrowleft","","","","","","","","","","","","","key","arrowleft","16.6652740740739","720","476","arrowleft","true","../../test_img/19.png","生人","prac_matching_task","生人","[""<img src=\""../../test_img/19.png\"" width=150 style=\""vertical-align:middle\"">---生人"",""<img src=\""../../test_img/25.png\"" width=150 style=\""vertical-align:middle\"">---自我"",""<img src=\""../../test_img/12.png\"" width=150 style=\""vertical-align:middle\"">---朋友""]","","",""
"","","","","","html-keyboard-response","94","379723","0.0-7.1-0.1-1.40","null","<span style='color:GreenYellow; font-size: 70px;'>正确! </span>","null","","","","","","","","","","","","","","","","","","","","","","","","","feedback_test","",""
"","","","","","psychophysics","95","381419","0.0-7.1-0.1-0.41","688","","arrowleft","","","","","","","","","","","","","key","arrowleft","16.66382178217795","720","476","arrowleft","true","../../test_img/25.png","自我","prac_matching_task","自我","[""<img src=\""../../test_img/19.png\"" width=150 style=\""vertical-align:middle\"">---生人"",""<img src=\""../../test_img/25.png\"" width=150 style=\""vertical-align:middle\"">---自我"",""<img src=\""../../test_img/12.png\"" width=150 style=\""vertical-align:middle\"">---朋友""]","","",""
"","","","","","html-keyboard-response","96","381732","0.0-7.1-0.1-1.41","null","<span style='color:GreenYellow; font-size: 70px;'>正确! </span>","null","","","","","","","","","","","","","","","","","","","","","","","","","feedback_test","",""
"","","","","","psychophysics","97","383547","0.0-7.1-0.1-0.42","800","","arrowleft","","","","","","","","","","","","","key","arrowleft","16.664485981308193","720","476","arrowleft","true","../../test_img/25.png","自我","prac_matching_task","自我","[""<img src=\""../../test_img/19.png\"" width=150 style=\""vertical-align:middle\"">---生人"",""<img src=\""../../test_img/25.png\"" width=150 style=\""vertical-align:middle\"">---自我"",""<img src=\""../../test_img/12.png\"" width=150 style=\""vertical-align:middle\"">---朋友""]","","",""
"","","","","","html-keyboard-response","98","383855","0.0-7.1-0.1-1.42","null","<span style='color:GreenYellow; font-size: 70px;'>正确! </span>","null","","","","","","","","","","","","","","","","","","","","","","","","","feedback_test","",""
"","","","","","psychophysics","99","385800","0.0-7.1-0.1-0.43","938","","arrowright","","","","","","","","","","","","","key","arrowright","16.666379310344727","720","476","arrowright","true","../../test_img/12.png","自我","prac_matching_task","朋友","[""<img src=\""../../test_img/19.png\"" width=150 style=\""vertical-align:middle\"">---生人"",""<img src=\""../../test_img/25.png\"" width=150 style=\""vertical-align:middle\"">---自我"",""<img src=\""../../test_img/12.png\"" width=150 style=\""vertical-align:middle\"">---朋友""]","","",""
"","","","","","html-keyboard-response","100","386111","0.0-7.1-0.1-1.43","null","<span style='color:GreenYellow; font-size: 70px;'>正确! </span>","null","","","","","","","","","","","","","","","","","","","","","","","","","feedback_test","",""
"","","","","","psychophysics","101","388038","0.0-7.1-0.1-0.44","924","","arrowright","","","","","","","","","","","","","key","arrowright","16.66695652173923","720","476","arrowright","true","../../test_img/25.png","朋友","prac_matching_task","自我","[""<img src=\""../../test_img/19.png\"" width=150 style=\""vertical-align:middle\"">---生人"",""<img src=\""../../test_img/25.png\"" width=150 style=\""vertical-align:middle\"">---自我"",""<img src=\""../../test_img/12.png\"" width=150 style=\""vertical-align:middle\"">---朋友""]","","",""
"","","","","","html-keyboard-response","102","388354","0.0-7.1-0.1-1.44","null","<span style='color:GreenYellow; font-size: 70px;'>正确! </span>","null","","","","","","","","","","","","","","","","","","","","","","","","","feedback_test","",""
"","","","","","psychophysics","103","390270","0.0-7.1-0.1-0.45","904","","arrowleft","","","","","","","","","","","","","key","arrowleft","16.665315789473347","720","476","arrowright","false","../../test_img/19.png","朋友","prac_matching_task","生人","[""<img src=\""../../test_img/19.png\"" width=150 style=\""vertical-align:middle\"">---生人"",""<img src=\""../../test_img/25.png\"" width=150 style=\""vertical-align:middle\"">---自我"",""<img src=\""../../test_img/12.png\"" width=150 style=\""vertical-align:middle\"">---朋友""]","","",""
"","","","","","html-keyboard-response","104","390577","0.0-7.1-0.1-1.45","null","<span style='color:red; font-size: 70px;'>错误! </span>","null","","","","","","","","","","","","","","","","","","","","","","","","","feedback_test","",""
"","","","","","psychophysics","105","392696","0.0-7.1-0.1-0.46","1115","","arrowleft","","","","","","","","","","","","","key","arrowleft","16.663587301587484","720","476","arrowleft","true","../../test_img/12.png","朋友","prac_matching_task","朋友","[""<img src=\""../../test_img/19.png\"" width=150 style=\""vertical-align:middle\"">---生人"",""<img src=\""../../test_img/25.png\"" width=150 style=\""vertical-align:middle\"">---自我"",""<img src=\""../../test_img/12.png\"" width=150 style=\""vertical-align:middle\"">---朋友""]","","",""
"","","","","","html-keyboard-response","106","393006","0.0-7.1-0.1-1.46","null","<span style='color:GreenYellow; font-size: 70px;'>正确! </span>","null","","","","","","","","","","","","","","","","","","","","","","","","","feedback_test","",""
"","","","","","psychophysics","107","394853","0.0-7.1-0.1-0.47","838","","arrowright","","","","","","","","","","","","","key","arrowright","16.667272727272408","720","476","arrowright","true","../../test_img/12.png","生人","prac_matching_task","朋友","[""<img src=\""../../test_img/19.png\"" width=150 style=\""vertical-align:middle\"">---生人"",""<img src=\""../../test_img/25.png\"" width=150 style=\""vertical-align:middle\"">---自我"",""<img src=\""../../test_img/12.png\"" width=150 style=\""vertical-align:middle\"">---朋友""]","","",""
"","","","","","html-keyboard-response","108","395157","0.0-7.1-0.1-1.47","null","<span style='color:GreenYellow; font-size: 70px;'>正确! </span>","null","","","","","","","","","","","","","","","","","","","","","","","","","feedback_test","",""
"","","","","","html-keyboard-response","109","402392","0.0-8.0","7229","<style>.context{color:white; font-size: 35px; line-height:40px}</style>                          <div><p class='context'>您正确回答了83% 的试次。</p ><p class='context'>您的平均反应时为989毫秒。</p ><p class='context'>恭喜您完成练习。按任意键进入知觉匹配任务正式实验。</p ><p style = 'color:lightgreen; font-size: 35px;' >正式实验与练习要求相同，请您尽可能又快又准地进行按键反应</p><p class='footer' style='font-size: 22px; line-height:40px;'>请将您右手的<span style='color: lightgreen;'>食指与无名指</span>放在电脑键盘的相应键位上进行按键。</p >"," ","","","","","","","","","","","","","","","","","","","","","","","","","","",""
"","","","","","psychophysics","110","404264","0.0-9.0-0.0-0.0-0.0-0.0","866","","arrowright","","","","","","","","","","","","","key","arrowright","16.66486486486476","720","476","arrowright","true","../../test_img/25.png","生人","matching_task","自我","[""<img src=\""../../test_img/19.png\"" width=150 style=\""vertical-align:middle\"">---生人"",""<img src=\""../../test_img/25.png\"" width=150 style=\""vertical-align:middle\"">---自我"",""<img src=\""../../test_img/12.png\"" width=150 style=\""vertical-align:middle\"">---朋友""]","","",""
"","","","","","html-keyboard-response","111","404766","0.0-9.0-0.0-0.0-0.0-1.0","null","<span style='color:GreenYellow; font-size: 70px;'>正确! </span>","null","","","","","","","","","","","","","","","","","","","","","","","","","feedback_test","",""
"","","","","","psychophysics","112","406446","0.0-9.0-0.0-0.0-0.0-0.1","667","","arrowleft","","","","","","","","","","","","","key","arrowleft","16.66363636363648","720","476","arrowright","false","../../test_img/12.png","自我","matching_task","朋友","[""<img src=\""../../test_img/19.png\"" width=150 style=\""vertical-align:middle\"">---生人"",""<img src=\""../../test_img/25.png\"" width=150 style=\""vertical-align:middle\"">---自我"",""<img src=\""../../test_img/12.png\"" width=150 style=\""vertical-align:middle\"">---朋友""]","","",""
"","","","","","html-keyboard-response","113","406962","0.0-9.0-0.0-0.0-0.0-1.1","null","<span style='color:red; font-size: 70px;'>错误! </span>","null","","","","","","","","","","","","","","","","","","","","","","","","","feedback_test","",""
"","","","","","psychophysics","114","408739","0.0-9.0-0.0-0.0-0.0-0.2","773","","arrowleft","","","","","","","","","","","","","key","arrowleft","16.670754716980912","720","476","arrowleft","true","../../test_img/25.png","自我","matching_task","自我","[""<img src=\""../../test_img/19.png\"" width=150 style=\""vertical-align:middle\"">---生人"",""<img src=\""../../test_img/25.png\"" width=150 style=\""vertical-align:middle\"">---自我"",""<img src=\""../../test_img/12.png\"" width=150 style=\""vertical-align:middle\"">---朋友""]","","",""
"","","","","","html-keyboard-response","115","409242","0.0-9.0-0.0-0.0-0.0-1.2","null","<span style='color:GreenYellow; font-size: 70px;'>正确! </span>","null","","","","","","","","","","","","","","","","","","","","","","","","","feedback_test","",""
"","","","","","psychophysics","116","411190","0.0-9.0-0.0-0.0-0.0-0.3","943","","arrowleft","","","","","","","","","","","","","key","arrowleft","16.66810344827586","720","476","arrowleft","true","../../test_img/19.png","生人","matching_task","生人","[""<img src=\""../../test_img/19.png\"" width=150 style=\""vertical-align:middle\"">---生人"",""<img src=\""../../test_img/25.png\"" width=150 style=\""vertical-align:middle\"">---自我"",""<img src=\""../../test_img/12.png\"" width=150 style=\""vertical-align:middle\"">---朋友""]","","",""
"","","","","","html-keyboard-response","117","411706","0.0-9.0-0.0-0.0-0.0-1.3","null","<span style='color:GreenYellow; font-size: 70px;'>正确! </span>","null","","","","","","","","","","","","","","","","","","","","","","","","","feedback_test","",""
"","","","","","psychophysics","118","413692","0.0-9.0-0.0-0.0-0.0-0.4","978","","arrowright","","","","","","","","","","","","","key","arrowright","16.66610169491555","720","476","arrowright","true","../../test_img/12.png","生人","matching_task","朋友","[""<img src=\""../../test_img/19.png\"" width=150 style=\""vertical-align:middle\"">---生人"",""<img src=\""../../test_img/25.png\"" width=150 style=\""vertical-align:middle\"">---自我"",""<img src=\""../../test_img/12.png\"" width=150 style=\""vertical-align:middle\"">---朋友""]","","",""
"","","","","","html-keyboard-response","119","414198","0.0-9.0-0.0-0.0-0.0-1.4","null","<span style='color:GreenYellow; font-size: 70px;'>正确! </span>","null","","","","","","","","","","","","","","","","","","","","","","","","","feedback_test","",""
"","","","","","psychophysics","120","416145","0.0-9.0-0.0-0.0-0.0-0.5","946","","arrowright","","","","","","","","","","","","","key","arrowright","16.66695652173923","720","476","arrowright","true","../../test_img/19.png","自我","matching_task","生人","[""<img src=\""../../test_img/19.png\"" width=150 style=\""vertical-align:middle\"">---生人"",""<img src=\""../../test_img/25.png\"" width=150 style=\""vertical-align:middle\"">---自我"",""<img src=\""../../test_img/12.png\"" width=150 style=\""vertical-align:middle\"">---朋友""]","","",""
"","","","","","html-keyboard-response","121","416652","0.0-9.0-0.0-0.0-0.0-1.5","null","<span style='color:GreenYellow; font-size: 70px;'>正确! </span>","null","","","","","","","","","","","","","","","","","","","","","","","","","feedback_test","",""
"","","","","","psychophysics","122","418654","0.0-9.0-0.0-0.0-0.0-0.6","993","","arrowright","","","","","","","","","","","","","key","arrowright","16.66638655462224","720","476","arrowright","true","../../test_img/25.png","朋友","matching_task","自我","[""<img src=\""../../test_img/19.png\"" width=150 style=\""vertical-align:middle\"">---生人"",""<img src=\""../../test_img/25.png\"" width=150 style=\""vertical-align:middle\"">---自我"",""<img src=\""../../test_img/12.png\"" width=150 style=\""vertical-align:middle\"">---朋友""]","","",""
"","","","","","html-keyboard-response","123","419170","0.0-9.0-0.0-0.0-0.0-1.6","null","<span style='color:GreenYellow; font-size: 70px;'>正确! </span>","null","","","","","","","","","","","","","","","","","","","","","","","","","feedback_test","",""
"","","","","","psychophysics","124","421098","0.0-9.0-0.0-0.0-0.0-0.7","917","","arrowleft","","","","","","","","","","","","","key","arrowleft","16.665789473684416","720","476","arrowleft","true","../../test_img/12.png","朋友","matching_task","朋友","[""<img src=\""../../test_img/19.png\"" width=150 style=\""vertical-align:middle\"">---生人"",""<img src=\""../../test_img/25.png\"" width=150 style=\""vertical-align:middle\"">---自我"",""<img src=\""../../test_img/12.png\"" width=150 style=\""vertical-align:middle\"">---朋友""]","","",""
"","","","","","html-keyboard-response","125","421603","0.0-9.0-0.0-0.0-0.0-1.7","null","<span style='color:GreenYellow; font-size: 70px;'>正确! </span>","null","","","","","","","","","","","","","","","","","","","","","","","","","feedback_test","",""
"","","","","","psychophysics","126","423477","0.0-9.0-0.0-0.0-0.0-0.8","862","","arrowright","","","","","","","","","","","","","key","arrowright","16.664864864865283","720","476","arrowright","true","../../test_img/19.png","朋友","matching_task","生人","[""<img src=\""../../test_img/19.png\"" width=150 style=\""vertical-align:middle\"">---生人"",""<img src=\""../../test_img/25.png\"" width=150 style=\""vertical-align:middle\"">---自我"",""<img src=\""../../test_img/12.png\"" width=150 style=\""vertical-align:middle\"">---朋友""]","","",""
"","","","","","html-keyboard-response","127","423987","0.0-9.0-0.0-0.0-0.0-1.8","null","<span style='color:GreenYellow; font-size: 70px;'>正确! </span>","null","","","","","","","","","","","","","","","","","","","","","","","","","feedback_test","",""
"","","","","","psychophysics","128","425872","0.0-9.0-0.0-0.0-0.0-0.9","874","","arrowleft","","","","","","","","","","","","","key","arrowleft","16.66696428571387","720","476","arrowleft","true","../../test_img/12.png","朋友","matching_task","朋友","[""<img src=\""../../test_img/19.png\"" width=150 style=\""vertical-align:middle\"">---生人"",""<img src=\""../../test_img/25.png\"" width=150 style=\""vertical-align:middle\"">---自我"",""<img src=\""../../test_img/12.png\"" width=150 style=\""vertical-align:middle\"">---朋友""]","","",""
"","","","","","html-keyboard-response","129","426382","0.0-9.0-0.0-0.0-0.0-1.9","null","<span style='color:GreenYellow; font-size: 70px;'>正确! </span>","null","","","","","","","","","","","","","","","","","","","","","","","","","feedback_test","",""
"","","","","","psychophysics","130","428387","0.0-9.0-0.0-0.0-0.0-0.10","995","","arrowleft","","","","","","","","","","","","","key","arrowleft","16.66722689075601","720","476","arrowleft","true","../../test_img/19.png","生人","matching_task","生人","[""<img src=\""../../test_img/19.png\"" width=150 style=\""vertical-align:middle\"">---生人"",""<img src=\""../../test_img/25.png\"" width=150 style=\""vertical-align:middle\"">---自我"",""<img src=\""../../test_img/12.png\"" width=150 style=\""vertical-align:middle\"">---朋友""]","","",""
"","","","","","html-keyboard-response","131","428900","0.0-9.0-0.0-0.0-0.0-1.10","null","<span style='color:GreenYellow; font-size: 70px;'>正确! </span>","null","","","","","","","","","","","","","","","","","","","","","","","","","feedback_test","",""
"","","","","","psychophysics","132","430601","0.0-9.0-0.0-0.0-0.0-0.11","689","","arrowleft","","","","","","","","","","","","","key","arrowleft","16.664356435643334","720","476","arrowleft","true","../../test_img/25.png","自我","matching_task","自我","[""<img src=\""../../test_img/19.png\"" width=150 style=\""vertical-align:middle\"">---生人"",""<img src=\""../../test_img/25.png\"" width=150 style=\""vertical-align:middle\"">---自我"",""<img src=\""../../test_img/12.png\"" width=150 style=\""vertical-align:middle\"">---朋友""]","","",""
"","","","","","html-keyboard-response","133","431114","0.0-9.0-0.0-0.0-0.0-1.11","null","<span style='color:GreenYellow; font-size: 70px;'>正确! </span>","null","","","","","","","","","","","","","","","","","","","","","","","","","feedback_test","",""
"","","","","","psychophysics","134","432839","0.0-9.0-0.0-0.0-0.0-0.12","721","","arrowleft","","","","","","","","","","","","","key","arrowleft","16.666666666666668","720","476","arrowleft","true","../../test_img/12.png","朋友","matching_task","朋友","[""<img src=\""../../test_img/19.png\"" width=150 style=\""vertical-align:middle\"">---生人"",""<img src=\""../../test_img/25.png\"" width=150 style=\""vertical-align:middle\"">---自我"",""<img src=\""../../test_img/12.png\"" width=150 style=\""vertical-align:middle\"">---朋友""]","","",""
"","","","","","html-keyboard-response","135","433343","0.0-9.0-0.0-0.0-0.0-1.12","null","<span style='color:GreenYellow; font-size: 70px;'>正确! </span>","null","","","","","","","","","","","","","","","","","","","","","","","","","feedback_test","",""
"","","","","","psychophysics","136","435090","0.0-9.0-0.0-0.0-0.0-0.13","743","","arrowleft","","","","","","","","","","","","","key","arrowleft","16.664423076923413","720","476","arrowleft","true","../../test_img/19.png","生人","matching_task","生人","[""<img src=\""../../test_img/19.png\"" width=150 style=\""vertical-align:middle\"">---生人"",""<img src=\""../../test_img/25.png\"" width=150 style=\""vertical-align:middle\"">---自我"",""<img src=\""../../test_img/12.png\"" width=150 style=\""vertical-align:middle\"">---朋友""]","","",""
"","","","","","html-keyboard-response","137","435602","0.0-9.0-0.0-0.0-0.0-1.13","null","<span style='color:GreenYellow; font-size: 70px;'>正确! </span>","null","","","","","","","","","","","","","","","","","","","","","","","","","feedback_test","",""
"","","","","","psychophysics","138","437192","0.0-9.0-0.0-0.0-0.0-0.14","578","","arrowleft","","","","","","","","","","","","","key","arrowleft","16.665957446808264","720","476","arrowright","false","../../test_img/12.png","自我","matching_task","朋友","[""<img src=\""../../test_img/19.png\"" width=150 style=\""vertical-align:middle\"">---生人"",""<img src=\""../../test_img/25.png\"" width=150 style=\""vertical-align:middle\"">---自我"",""<img src=\""../../test_img/12.png\"" width=150 style=\""vertical-align:middle\"">---朋友""]","","",""
"","","","","","html-keyboard-response","139","437694","0.0-9.0-0.0-0.0-0.0-1.14","null","<span style='color:red; font-size: 70px;'>错误! </span>","null","","","","","","","","","","","","","","","","","","","","","","","","","feedback_test","",""
"","","","","","psychophysics","140","439618","0.0-9.0-0.0-0.0-0.0-0.15","921","","arrowright","","","","","","","","","","","","","key","arrowright","16.66539130434748","720","476","arrowright","true","../../test_img/25.png","生人","matching_task","自我","[""<img src=\""../../test_img/19.png\"" width=150 style=\""vertical-align:middle\"">---生人"",""<img src=\""../../test_img/25.png\"" width=150 style=\""vertical-align:middle\"">---自我"",""<img src=\""../../test_img/12.png\"" width=150 style=\""vertical-align:middle\"">---朋友""]","","",""
"","","","","","html-keyboard-response","141","440126","0.0-9.0-0.0-0.0-0.0-1.15","null","<span style='color:GreenYellow; font-size: 70px;'>正确! </span>","null","","","","","","","","","","","","","","","","","","","","","","","","","feedback_test","",""
"","","","","","psychophysics","142","441841","0.0-9.0-0.0-0.0-0.0-0.16","710","","arrowleft","","","","","","","","","","","","","key","arrowleft","16.66568627450946","720","476","arrowleft","true","../../test_img/25.png","自我","matching_task","自我","[""<img src=\""../../test_img/19.png\"" width=150 style=\""vertical-align:middle\"">---生人"",""<img src=\""../../test_img/25.png\"" width=150 style=\""vertical-align:middle\"">---自我"",""<img src=\""../../test_img/12.png\"" width=150 style=\""vertical-align:middle\"">---朋友""]","","",""
"","","","","","html-keyboard-response","143","442345","0.0-9.0-0.0-0.0-0.0-1.16","null","<span style='color:GreenYellow; font-size: 70px;'>正确! </span>","null","","","","","","","","","","","","","","","","","","","","","","","","","feedback_test","",""
"","","","","","psychophysics","144","444410","0.0-9.0-0.0-0.0-0.0-0.17","1061","","arrowright","","","","","","","","","","","","","key","arrowright","16.65983606557377","720","476","arrowleft","false","../../test_img/25.png","自我","matching_task","自我","[""<img src=\""../../test_img/19.png\"" width=150 style=\""vertical-align:middle\"">---生人"",""<img src=\""../../test_img/25.png\"" width=150 style=\""vertical-align:middle\"">---自我"",""<img src=\""../../test_img/12.png\"" width=150 style=\""vertical-align:middle\"">---朋友""]","","",""
"","","","","","html-keyboard-response","145","444916","0.0-9.0-0.0-0.0-0.0-1.17","null","<span style='color:red; font-size: 70px;'>错误! </span>","null","","","","","","","","","","","","","","","","","","","","","","","","","feedback_test","",""
"","","","","","psychophysics","146","447014","0.0-9.0-0.0-0.0-0.0-0.18","1088","","arrowright","","","","","","","","","","","","","key","arrowright","16.666399999999907","720","476","arrowright","true","../../test_img/25.png","朋友","matching_task","自我","[""<img src=\""../../test_img/19.png\"" width=150 style=\""vertical-align:middle\"">---生人"",""<img src=\""../../test_img/25.png\"" width=150 style=\""vertical-align:middle\"">---自我"",""<img src=\""../../test_img/12.png\"" width=150 style=\""vertical-align:middle\"">---朋友""]","","",""
"","","","","","html-keyboard-response","147","447530","0.0-9.0-0.0-0.0-0.0-1.18","null","<span style='color:GreenYellow; font-size: 70px;'>正确! </span>","null","","","","","","","","","","","","","","","","","","","","","","","","","feedback_test","",""
"","","","","","psychophysics","148","449679","0.0-9.0-0.0-0.0-0.0-0.19","1147","","arrowright","","","","","","","","","","","","","key","arrowright","16.66771653543298","720","476","arrowright","true","../../test_img/19.png","自我","matching_task","生人","[""<img src=\""../../test_img/19.png\"" width=150 style=\""vertical-align:middle\"">---生人"",""<img src=\""../../test_img/25.png\"" width=150 style=\""vertical-align:middle\"">---自我"",""<img src=\""../../test_img/12.png\"" width=150 style=\""vertical-align:middle\"">---朋友""]","","",""
"","","","","","html-keyboard-response","149","450191","0.0-9.0-0.0-0.0-0.0-1.19","null","<span style='color:GreenYellow; font-size: 70px;'>正确! </span>","null","","","","","","","","","","","","","","","","","","","","","","","","","feedback_test","",""
"","","","","","psychophysics","150","452055","0.0-9.0-0.0-0.0-0.0-0.20","858","","arrowleft","","","","","","","","","","","","","key","arrowleft","16.66486486486476","720","476","arrowleft","true","../../test_img/12.png","朋友","matching_task","朋友","[""<img src=\""../../test_img/19.png\"" width=150 style=\""vertical-align:middle\"">---生人"",""<img src=\""../../test_img/25.png\"" width=150 style=\""vertical-align:middle\"">---自我"",""<img src=\""../../test_img/12.png\"" width=150 style=\""vertical-align:middle\"">---朋友""]","","",""
"","","","","","html-keyboard-response","151","452561","0.0-9.0-0.0-0.0-0.0-1.20","null","<span style='color:GreenYellow; font-size: 70px;'>正确! </span>","null","","","","","","","","","","","","","","","","","","","","","","","","","feedback_test","",""
"","","","","","psychophysics","152","454344","0.0-9.0-0.0-0.0-0.0-0.21","780","","arrowright","","","","","","","","","","","","","key","arrowright","16.664339622641357","720","476","arrowright","true","../../test_img/12.png","生人","matching_task","朋友","[""<img src=\""../../test_img/19.png\"" width=150 style=\""vertical-align:middle\"">---生人"",""<img src=\""../../test_img/25.png\"" width=150 style=\""vertical-align:middle\"">---自我"",""<img src=\""../../test_img/12.png\"" width=150 style=\""vertical-align:middle\"">---朋友""]","","",""
"","","","","","html-keyboard-response","153","454857","0.0-9.0-0.0-0.0-0.0-1.21","null","<span style='color:GreenYellow; font-size: 70px;'>正确! </span>","null","","","","","","","","","","","","","","","","","","","","","","","","","feedback_test","",""
"","","","","","psychophysics","154","456645","0.0-9.0-0.0-0.0-0.0-0.22","782","","arrowleft","","","","","","","","","","","","","key","arrowleft","16.664150943396447","720","476","arrowleft","true","../../test_img/19.png","生人","matching_task","生人","[""<img src=\""../../test_img/19.png\"" width=150 style=\""vertical-align:middle\"">---生人"",""<img src=\""../../test_img/25.png\"" width=150 style=\""vertical-align:middle\"">---自我"",""<img src=\""../../test_img/12.png\"" width=150 style=\""vertical-align:middle\"">---朋友""]","","",""
"","","","","","html-keyboard-response","155","457159","0.0-9.0-0.0-0.0-0.0-1.22","null","<span style='color:GreenYellow; font-size: 70px;'>正确! </span>","null","","","","","","","","","","","","","","","","","","","","","","","","","feedback_test","",""
"","","","","","psychophysics","156","459025","0.0-9.0-0.0-0.0-0.0-0.23","862","","arrowright","","","","","","","","","","","","","key","arrowright","16.66535135135128","720","476","arrowright","true","../../test_img/19.png","朋友","matching_task","生人","[""<img src=\""../../test_img/19.png\"" width=150 style=\""vertical-align:middle\"">---生人"",""<img src=\""../../test_img/25.png\"" width=150 style=\""vertical-align:middle\"">---自我"",""<img src=\""../../test_img/12.png\"" width=150 style=\""vertical-align:middle\"">---朋友""]","","",""
"","","","","","html-keyboard-response","157","459533","0.0-9.0-0.0-0.0-0.0-1.23","null","<span style='color:GreenYellow; font-size: 70px;'>正确! </span>","null","","","","","","","","","","","","","","","","","","","","","","","","","feedback_test","",""
"","","","","","psychophysics","158","461430","0.0-9.0-0.0-0.0-0.0-0.24","883","","arrowright","","","","","","","","","","","","","key","arrowright","16.66607142857174","720","476","arrowright","true","../../test_img/25.png","朋友","matching_task","自我","[""<img src=\""../../test_img/19.png\"" width=150 style=\""vertical-align:middle\"">---生人"",""<img src=\""../../test_img/25.png\"" width=150 style=\""vertical-align:middle\"">---自我"",""<img src=\""../../test_img/12.png\"" width=150 style=\""vertical-align:middle\"">---朋友""]","","",""
"","","","","","html-keyboard-response","159","461937","0.0-9.0-0.0-0.0-0.0-1.24","null","<span style='color:GreenYellow; font-size: 70px;'>正确! </span>","null","","","","","","","","","","","","","","","","","","","","","","","","","feedback_test","",""
"","","","","","psychophysics","160","463785","0.0-9.0-0.0-0.0-0.0-0.25","839","","arrowleft","","","","","","","","","","","","","key","arrowleft","16.66636363636406","720","476","arrowleft","true","../../test_img/19.png","生人","matching_task","生人","[""<img src=\""../../test_img/19.png\"" width=150 style=\""vertical-align:middle\"">---生人"",""<img src=\""../../test_img/25.png\"" width=150 style=\""vertical-align:middle\"">---自我"",""<img src=\""../../test_img/12.png\"" width=150 style=\""vertical-align:middle\"">---朋友""]","","",""
"","","","","","html-keyboard-response","161","464292","0.0-9.0-0.0-0.0-0.0-1.25","null","<span style='color:GreenYellow; font-size: 70px;'>正确! </span>","null","","","","","","","","","","","","","","","","","","","","","","","","","feedback_test","",""
"","","","","","psychophysics","162","466029","0.0-9.0-0.0-0.0-0.0-0.26","732","","arrowleft","","","","","","","","","","","","","key","arrowleft","16.66504854368932","720","476","arrowleft","true","../../test_img/19.png","生人","matching_task","生人","[""<img src=\""../../test_img/19.png\"" width=150 style=\""vertical-align:middle\"">---生人"",""<img src=\""../../test_img/25.png\"" width=150 style=\""vertical-align:middle\"">---自我"",""<img src=\""../../test_img/12.png\"" width=150 style=\""vertical-align:middle\"">---朋友""]","","",""
"","","","","","html-keyboard-response","163","466535","0.0-9.0-0.0-0.0-0.0-1.26","null","<span style='color:GreenYellow; font-size: 70px;'>正确! </span>","null","","","","","","","","","","","","","","","","","","","","","","","","","feedback_test","",""
"","","","","","psychophysics","164","468413","0.0-9.0-0.0-0.0-0.0-0.27","866","","arrowright","","","","","","","","","","","","","key","arrowright","16.667567567567357","720","476","arrowleft","false","../../test_img/12.png","朋友","matching_task","朋友","[""<img src=\""../../test_img/19.png\"" width=150 style=\""vertical-align:middle\"">---生人"",""<img src=\""../../test_img/25.png\"" width=150 style=\""vertical-align:middle\"">---自我"",""<img src=\""../../test_img/12.png\"" width=150 style=\""vertical-align:middle\"">---朋友""]","","",""
"","","","","","html-keyboard-response","165","468922","0.0-9.0-0.0-0.0-0.0-1.27","null","<span style='color:red; font-size: 70px;'>错误! </span>","null","","","","","","","","","","","","","","","","","","","","","","","","","feedback_test","",""
"","","","","","psychophysics","166","470874","0.0-9.0-0.0-0.0-0.0-0.28","944","","arrowright","","","","","","","","","","","","","key","arrowright","16.664655172414093","720","476","arrowright","true","../../test_img/25.png","生人","matching_task","自我","[""<img src=\""../../test_img/19.png\"" width=150 style=\""vertical-align:middle\"">---生人"",""<img src=\""../../test_img/25.png\"" width=150 style=\""vertical-align:middle\"">---自我"",""<img src=\""../../test_img/12.png\"" width=150 style=\""vertical-align:middle\"">---朋友""]","","",""
"","","","","","html-keyboard-response","167","471385","0.0-9.0-0.0-0.0-0.0-1.28","null","<span style='color:GreenYellow; font-size: 70px;'>正确! </span>","null","","","","","","","","","","","","","","","","","","","","","","","","","feedback_test","",""
"","","","","","psychophysics","168","473172","0.0-9.0-0.0-0.0-0.0-0.29","776","","arrowright","","","","","","","","","","","","","key","arrowright","16.664150943396447","720","476","arrowleft","false","../../test_img/12.png","朋友","matching_task","朋友","[""<img src=\""../../test_img/19.png\"" width=150 style=\""vertical-align:middle\"">---生人"",""<img src=\""../../test_img/25.png\"" width=150 style=\""vertical-align:middle\"">---自我"",""<img src=\""../../test_img/12.png\"" width=150 style=\""vertical-align:middle\"">---朋友""]","","",""
"","","","","","html-keyboard-response","169","473674","0.0-9.0-0.0-0.0-0.0-1.29","null","<span style='color:red; font-size: 70px;'>错误! </span>","null","","","","","","","","","","","","","","","","","","","","","","","","","feedback_test","",""
"","","","","","psychophysics","170","475377","0.0-9.0-0.0-0.0-0.0-0.30","697","","arrowleft","","","","","","","","","","","","","key","arrowleft","16.666336633663253","720","476","arrowleft","true","../../test_img/25.png","自我","matching_task","自我","[""<img src=\""../../test_img/19.png\"" width=150 style=\""vertical-align:middle\"">---生人"",""<img src=\""../../test_img/25.png\"" width=150 style=\""vertical-align:middle\"">---自我"",""<img src=\""../../test_img/12.png\"" width=150 style=\""vertical-align:middle\"">---朋友""]","","",""
"","","","","","html-keyboard-response","171","475884","0.0-9.0-0.0-0.0-0.0-1.30","null","<span style='color:GreenYellow; font-size: 70px;'>正确! </span>","null","","","","","","","","","","","","","","","","","","","","","","","","","feedback_test","",""
"","","","","","psychophysics","172","477852","0.0-9.0-0.0-0.0-0.0-0.31","962","","arrowright","","","","","","","","","","","","","key","arrowright","16.667982905983237","720","476","arrowright","true","../../test_img/19.png","朋友","matching_task","生人","[""<img src=\""../../test_img/19.png\"" width=150 style=\""vertical-align:middle\"">---生人"",""<img src=\""../../test_img/25.png\"" width=150 style=\""vertical-align:middle\"">---自我"",""<img src=\""../../test_img/12.png\"" width=150 style=\""vertical-align:middle\"">---朋友""]","","",""
"","","","","","html-keyboard-response","173","478367","0.0-9.0-0.0-0.0-0.0-1.31","null","<span style='color:GreenYellow; font-size: 70px;'>正确! </span>","null","","","","","","","","","","","","","","","","","","","","","","","","","feedback_test","",""
"","","","","","psychophysics","174","480208","0.0-9.0-0.0-0.0-0.0-0.32","829","","arrowright","","","","","","","","","","","","","key","arrowright","16.665137614678898","720","476","arrowright","true","../../test_img/12.png","自我","matching_task","朋友","[""<img src=\""../../test_img/19.png\"" width=150 style=\""vertical-align:middle\"">---生人"",""<img src=\""../../test_img/25.png\"" width=150 style=\""vertical-align:middle\"">---自我"",""<img src=\""../../test_img/12.png\"" width=150 style=\""vertical-align:middle\"">---朋友""]","","",""
"","","","","","html-keyboard-response","175","480722","0.0-9.0-0.0-0.0-0.0-1.32","null","<span style='color:GreenYellow; font-size: 70px;'>正确! </span>","null","","","","","","","","","","","","","","","","","","","","","","","","","feedback_test","",""
"","","","","","psychophysics","176","482709","0.0-9.0-0.0-0.0-0.0-0.33","980","","arrowright","","","","","","","","","","","","","key","arrowright","16.66486440677989","720","476","arrowright","true","../../test_img/19.png","自我","matching_task","生人","[""<img src=\""../../test_img/19.png\"" width=150 style=\""vertical-align:middle\"">---生人"",""<img src=\""../../test_img/25.png\"" width=150 style=\""vertical-align:middle\"">---自我"",""<img src=\""../../test_img/12.png\"" width=150 style=\""vertical-align:middle\"">---朋友""]","","",""
"","","","","","html-keyboard-response","177","483219","0.0-9.0-0.0-0.0-0.0-1.33","null","<span style='color:GreenYellow; font-size: 70px;'>正确! </span>","null","","","","","","","","","","","","","","","","","","","","","","","","","feedback_test","",""
"","","","","","psychophysics","178","484870","0.0-9.0-0.0-0.0-0.0-0.34","641","","arrowleft","","","","","","","","","","","","","key","arrowleft","16.666326530612125","720","476","arrowleft","true","../../test_img/25.png","自我","matching_task","自我","[""<img src=\""../../test_img/19.png\"" width=150 style=\""vertical-align:middle\"">---生人"",""<img src=\""../../test_img/25.png\"" width=150 style=\""vertical-align:middle\"">---自我"",""<img src=\""../../test_img/12.png\"" width=150 style=\""vertical-align:middle\"">---朋友""]","","",""
"","","","","","html-keyboard-response","179","485380","0.0-9.0-0.0-0.0-0.0-1.34","null","<span style='color:GreenYellow; font-size: 70px;'>正确! </span>","null","","","","","","","","","","","","","","","","","","","","","","","","","feedback_test","",""
"","","","","","psychophysics","180","487359","0.0-9.0-0.0-0.0-0.0-0.35","976","","arrowright","","","","","","","","","","","","","key","arrowright","16.665811965812164","720","476","arrowright","true","../../test_img/12.png","生人","matching_task","朋友","[""<img src=\""../../test_img/19.png\"" width=150 style=\""vertical-align:middle\"">---生人"",""<img src=\""../../test_img/25.png\"" width=150 style=\""vertical-align:middle\"">---自我"",""<img src=\""../../test_img/12.png\"" width=150 style=\""vertical-align:middle\"">---朋友""]","","",""
"","","","","","html-keyboard-response","181","487874","0.0-9.0-0.0-0.0-0.0-1.35","null","<span style='color:GreenYellow; font-size: 70px;'>正确! </span>","null","","","","","","","","","","","","","","","","","","","","","","","","","feedback_test","",""
"","","","","","psychophysics","182","489728","0.0-9.0-0.0-0.0-0.0-0.36","849","","arrowright","","","","","","","","","","","","","key","arrowright","16.66636363636353","720","476","arrowright","true","../../test_img/25.png","生人","matching_task","自我","[""<img src=\""../../test_img/19.png\"" width=150 style=\""vertical-align:middle\"">---生人"",""<img src=\""../../test_img/25.png\"" width=150 style=\""vertical-align:middle\"">---自我"",""<img src=\""../../test_img/12.png\"" width=150 style=\""vertical-align:middle\"">---朋友""]","","",""
"","","","","","html-keyboard-response","183","490243","0.0-9.0-0.0-0.0-0.0-1.36","null","<span style='color:GreenYellow; font-size: 70px;'>正确! </span>","null","","","","","","","","","","","","","","","","","","","","","","","","","feedback_test","",""
"","","","","","psychophysics","184","492071","0.0-9.0-0.0-0.0-0.0-0.37","822","","arrowleft","","","","","","","","","","","","","key","arrowleft","16.666666666666668","720","476","arrowleft","true","../../test_img/25.png","自我","matching_task","自我","[""<img src=\""../../test_img/19.png\"" width=150 style=\""vertical-align:middle\"">---生人"",""<img src=\""../../test_img/25.png\"" width=150 style=\""vertical-align:middle\"">---自我"",""<img src=\""../../test_img/12.png\"" width=150 style=\""vertical-align:middle\"">---朋友""]","","",""
"","","","","","html-keyboard-response","185","492582","0.0-9.0-0.0-0.0-0.0-1.37","null","<span style='color:GreenYellow; font-size: 70px;'>正确! </span>","null","","","","","","","","","","","","","","","","","","","","","","","","","feedback_test","",""
"","","","","","psychophysics","186","494352","0.0-9.0-0.0-0.0-0.0-0.38","759","","arrowleft","","","","","","","","","","","","","key","arrowleft","16.665714285714508","720","476","arrowleft","true","../../test_img/19.png","生人","matching_task","生人","[""<img src=\""../../test_img/19.png\"" width=150 style=\""vertical-align:middle\"">---生人"",""<img src=\""../../test_img/25.png\"" width=150 style=\""vertical-align:middle\"">---自我"",""<img src=\""../../test_img/12.png\"" width=150 style=\""vertical-align:middle\"">---朋友""]","","",""
"","","","","","html-keyboard-response","187","494861","0.0-9.0-0.0-0.0-0.0-1.38","null","<span style='color:GreenYellow; font-size: 70px;'>正确! </span>","null","","","","","","","","","","","","","","","","","","","","","","","","","feedback_test","",""
"","","","","","psychophysics","188","496557","0.0-9.0-0.0-0.0-0.0-0.39","686","","arrowleft","","","","","","","","","","","","","key","arrowleft","16.667000000000115","720","476","arrowleft","true","../../test_img/25.png","自我","matching_task","自我","[""<img src=\""../../test_img/19.png\"" width=150 style=\""vertical-align:middle\"">---生人"",""<img src=\""../../test_img/25.png\"" width=150 style=\""vertical-align:middle\"">---自我"",""<img src=\""../../test_img/12.png\"" width=150 style=\""vertical-align:middle\"">---朋友""]","","",""
"","","","","","html-keyboard-response","189","497066","0.0-9.0-0.0-0.0-0.0-1.39","null","<span style='color:GreenYellow; font-size: 70px;'>正确! </span>","null","","","","","","","","","","","","","","","","","","","","","","","","","feedback_test","",""
"","","","","","psychophysics","190","499071","0.0-9.0-0.0-0.0-0.0-0.40","994","","arrowright","","","","","","","","","","","","","key","arrowright","16.665546218487492","720","476","arrowright","true","../../test_img/19.png","朋友","matching_task","生人","[""<img src=\""../../test_img/19.png\"" width=150 style=\""vertical-align:middle\"">---生人"",""<img src=\""../../test_img/25.png\"" width=150 style=\""vertical-align:middle\"">---自我"",""<img src=\""../../test_img/12.png\"" width=150 style=\""vertical-align:middle\"">---朋友""]","","",""
"","","","","","html-keyboard-response","191","499587","0.0-9.0-0.0-0.0-0.0-1.40","null","<span style='color:GreenYellow; font-size: 70px;'>正确! </span>","null","","","","","","","","","","","","","","","","","","","","","","","","","feedback_test","",""
"","","","","","psychophysics","192","501580","0.0-9.0-0.0-0.0-0.0-0.41","985","","arrowright","","","","","","","","","","","","","key","arrowright","16.665254237288135","720","476","arrowright","true","../../test_img/12.png","自我","matching_task","朋友","[""<img src=\""../../test_img/19.png\"" width=150 style=\""vertical-align:middle\"">---生人"",""<img src=\""../../test_img/25.png\"" width=150 style=\""vertical-align:middle\"">---自我"",""<img src=\""../../test_img/12.png\"" width=150 style=\""vertical-align:middle\"">---朋友""]","","",""
"","","","","","html-keyboard-response","193","502097","0.0-9.0-0.0-0.0-0.0-1.41","null","<span style='color:GreenYellow; font-size: 70px;'>正确! </span>","null","","","","","","","","","","","","","","","","","","","","","","","","","feedback_test","",""
"","","","","","psychophysics","194","503958","0.0-9.0-0.0-0.0-0.0-0.42","857","","arrowright","","","","","","","","","","","","","key","arrowright","16.66545454545412","720","476","arrowright","true","../../test_img/19.png","自我","matching_task","生人","[""<img src=\""../../test_img/19.png\"" width=150 style=\""vertical-align:middle\"">---生人"",""<img src=\""../../test_img/25.png\"" width=150 style=\""vertical-align:middle\"">---自我"",""<img src=\""../../test_img/12.png\"" width=150 style=\""vertical-align:middle\"">---朋友""]","","",""
"","","","","","html-keyboard-response","195","504469","0.0-9.0-0.0-0.0-0.0-1.42","null","<span style='color:GreenYellow; font-size: 70px;'>正确! </span>","null","","","","","","","","","","","","","","","","","","","","","","","","","feedback_test","",""
"","","","","","psychophysics","196","506370","0.0-9.0-0.0-0.0-0.0-0.43","890","","arrowleft","","","","","","","","","","","","","key","arrowleft","16.666371681415825","720","476","arrowleft","true","../../test_img/12.png","朋友","matching_task","朋友","[""<img src=\""../../test_img/19.png\"" width=150 style=\""vertical-align:middle\"">---生人"",""<img src=\""../../test_img/25.png\"" width=150 style=\""vertical-align:middle\"">---自我"",""<img src=\""../../test_img/12.png\"" width=150 style=\""vertical-align:middle\"">---朋友""]","","",""
"","","","","","html-keyboard-response","197","506886","0.0-9.0-0.0-0.0-0.0-1.43","null","<span style='color:GreenYellow; font-size: 70px;'>正确! </span>","null","","","","","","","","","","","","","","","","","","","","","","","","","feedback_test","",""
"","","","","","psychophysics","198","508709","0.0-9.0-0.0-0.0-0.0-0.44","813","","arrowright","","","","","","","","","","","","","key","arrowright","16.663888888888998","720","476","arrowright","true","../../test_img/25.png","朋友","matching_task","自我","[""<img src=\""../../test_img/19.png\"" width=150 style=\""vertical-align:middle\"">---生人"",""<img src=\""../../test_img/25.png\"" width=150 style=\""vertical-align:middle\"">---自我"",""<img src=\""../../test_img/12.png\"" width=150 style=\""vertical-align:middle\"">---朋友""]","","",""
"","","","","","html-keyboard-response","199","509210","0.0-9.0-0.0-0.0-0.0-1.44","null","<span style='color:GreenYellow; font-size: 70px;'>正确! </span>","null","","","","","","","","","","","","","","","","","","","","","","","","","feedback_test","",""
"","","","","","psychophysics","200","511349","0.0-9.0-0.0-0.0-0.0-0.45","1136","","arrowleft","","","","","","","","","","","","","key","arrowleft","16.66614173228374","720","476","arrowleft","true","../../test_img/19.png","生人","matching_task","生人","[""<img src=\""../../test_img/19.png\"" width=150 style=\""vertical-align:middle\"">---生人"",""<img src=\""../../test_img/25.png\"" width=150 style=\""vertical-align:middle\"">---自我"",""<img src=\""../../test_img/12.png\"" width=150 style=\""vertical-align:middle\"">---朋友""]","","",""
"","","","","","html-keyboard-response","201","511864","0.0-9.0-0.0-0.0-0.0-1.45","null","<span style='color:GreenYellow; font-size: 70px;'>正确! </span>","null","","","","","","","","","","","","","","","","","","","","","","","","","feedback_test","",""
"","","","","","psychophysics","202","513711","0.0-9.0-0.0-0.0-0.0-0.46","832","","arrowright","","","","","","","","","","","","","key","arrowright","16.666055045871346","720","476","arrowright","true","../../test_img/12.png","生人","matching_task","朋友","[""<img src=\""../../test_img/19.png\"" width=150 style=\""vertical-align:middle\"">---生人"",""<img src=\""../../test_img/25.png\"" width=150 style=\""vertical-align:middle\"">---自我"",""<img src=\""../../test_img/12.png\"" width=150 style=\""vertical-align:middle\"">---朋友""]","","",""
"","","","","","html-keyboard-response","203","514226","0.0-9.0-0.0-0.0-0.0-1.46","null","<span style='color:GreenYellow; font-size: 70px;'>正确! </span>","null","","","","","","","","","","","","","","","","","","","","","","","","","feedback_test","",""
"","","","","","psychophysics","204","515967","0.0-9.0-0.0-0.0-0.0-0.47","738","","arrowleft","","","","","","","","","","","","","key","arrowleft","16.663980769230804","720","476","arrowleft","true","../../test_img/12.png","朋友","matching_task","朋友","[""<img src=\""../../test_img/19.png\"" width=150 style=\""vertical-align:middle\"">---生人"",""<img src=\""../../test_img/25.png\"" width=150 style=\""vertical-align:middle\"">---自我"",""<img src=\""../../test_img/12.png\"" width=150 style=\""vertical-align:middle\"">---朋友""]","","",""
"","","","","","html-keyboard-response","205","516479","0.0-9.0-0.0-0.0-0.0-1.47","null","<span style='color:GreenYellow; font-size: 70px;'>正确! </span>","null","","","","","","","","","","","","","","","","","","","","","","","","","feedback_test","",""
"","","","","","psychophysics","206","518651","0.0-9.0-0.0-0.0-0.0-0.48","1157","","arrowleft","","","","","","","","","","","","","key","arrowleft","16.668217054263657","720","476","arrowleft","true","../../test_img/12.png","朋友","matching_task","朋友","[""<img src=\""../../test_img/19.png\"" width=150 style=\""vertical-align:middle\"">---生人"",""<img src=\""../../test_img/25.png\"" width=150 style=\""vertical-align:middle\"">---自我"",""<img src=\""../../test_img/12.png\"" width=150 style=\""vertical-align:middle\"">---朋友""]","","",""
"","","","","","html-keyboard-response","207","519160","0.0-9.0-0.0-0.0-0.0-1.48","null","<span style='color:GreenYellow; font-size: 70px;'>正确! </span>","null","","","","","","","","","","","","","","","","","","","","","","","","","feedback_test","",""
"","","","","","psychophysics","208","521591","0.0-9.0-0.0-0.0-0.0-0.49","1420","","arrowright","","","","","","","","","","","","","key","arrowright","16.664958333333036","720","476","arrowleft","false","../../test_img/19.png","生人","matching_task","生人","[""<img src=\""../../test_img/19.png\"" width=150 style=\""vertical-align:middle\"">---生人"",""<img src=\""../../test_img/25.png\"" width=150 style=\""vertical-align:middle\"">---自我"",""<img src=\""../../test_img/12.png\"" width=150 style=\""vertical-align:middle\"">---朋友""]","","",""
"","","","","","html-keyboard-response","209","522094","0.0-9.0-0.0-0.0-0.0-1.49","null","<span style='color:red; font-size: 70px;'>错误! </span>","null","","","","","","","","","","","","","","","","","","","","","","","","","feedback_test","",""
"","","","","","psychophysics","210","524432","0.0-9.0-0.0-0.0-0.0-0.50","1324","","arrowright","","","","","","","","","","","","","key","arrowright","16.667625899280072","720","476","arrowright","true","../../test_img/12.png","自我","matching_task","朋友","[""<img src=\""../../test_img/19.png\"" width=150 style=\""vertical-align:middle\"">---生人"",""<img src=\""../../test_img/25.png\"" width=150 style=\""vertical-align:middle\"">---自我"",""<img src=\""../../test_img/12.png\"" width=150 style=\""vertical-align:middle\"">---朋友""]","","",""
"","","","","","html-keyboard-response","211","524941","0.0-9.0-0.0-0.0-0.0-1.50","null","<span style='color:GreenYellow; font-size: 70px;'>正确! </span>","null","","","","","","","","","","","","","","","","","","","","","","","","","feedback_test","",""
"","","","","","psychophysics","212","526577","0.0-9.0-0.0-0.0-0.0-0.51","632","","arrowleft","","","","","","","","","","","","","key","arrowleft","16.66618556701026","720","476","arrowleft","true","../../test_img/25.png","自我","matching_task","自我","[""<img src=\""../../test_img/19.png\"" width=150 style=\""vertical-align:middle\"">---生人"",""<img src=\""../../test_img/25.png\"" width=150 style=\""vertical-align:middle\"">---自我"",""<img src=\""../../test_img/12.png\"" width=150 style=\""vertical-align:middle\"">---朋友""]","","",""
"","","","","","html-keyboard-response","213","527078","0.0-9.0-0.0-0.0-0.0-1.51","null","<span style='color:GreenYellow; font-size: 70px;'>正确! </span>","null","","","","","","","","","","","","","","","","","","","","","","","","","feedback_test","",""
"","","","","","psychophysics","214","528986","0.0-9.0-0.0-0.0-0.0-0.52","894","","arrowright","","","","","","","","","","","","","key","arrowright","16.668141592920353","720","476","arrowright","true","../../test_img/25.png","朋友","matching_task","自我","[""<img src=\""../../test_img/19.png\"" width=150 style=\""vertical-align:middle\"">---生人"",""<img src=\""../../test_img/25.png\"" width=150 style=\""vertical-align:middle\"">---自我"",""<img src=\""../../test_img/12.png\"" width=150 style=\""vertical-align:middle\"">---朋友""]","","",""
"","","","","","html-keyboard-response","215","529496","0.0-9.0-0.0-0.0-0.0-1.52","null","<span style='color:GreenYellow; font-size: 70px;'>正确! </span>","null","","","","","","","","","","","","","","","","","","","","","","","","","feedback_test","",""
"","","","","","psychophysics","216","531217","0.0-9.0-0.0-0.0-0.0-0.53","719","","arrowleft","","","","","","","","","","","","","key","arrowleft","16.666666666666668","720","476","arrowright","false","../../test_img/19.png","自我","matching_task","生人","[""<img src=\""../../test_img/19.png\"" width=150 style=\""vertical-align:middle\"">---生人"",""<img src=\""../../test_img/25.png\"" width=150 style=\""vertical-align:middle\"">---自我"",""<img src=\""../../test_img/12.png\"" width=150 style=\""vertical-align:middle\"">---朋友""]","","",""
"","","","","","html-keyboard-response","217","531719","0.0-9.0-0.0-0.0-0.0-1.53","null","<span style='color:red; font-size: 70px;'>错误! </span>","null","","","","","","","","","","","","","","","","","","","","","","","","","feedback_test","",""
"","","","","","psychophysics","218","533563","0.0-9.0-0.0-0.0-0.0-0.54","835","","arrowright","","","","","","","","","","","","","key","arrowright","16.66545454545412","720","476","arrowright","true","../../test_img/19.png","朋友","matching_task","生人","[""<img src=\""../../test_img/19.png\"" width=150 style=\""vertical-align:middle\"">---生人"",""<img src=\""../../test_img/25.png\"" width=150 style=\""vertical-align:middle\"">---自我"",""<img src=\""../../test_img/12.png\"" width=150 style=\""vertical-align:middle\"">---朋友""]","","",""
"","","","","","html-keyboard-response","219","534072","0.0-9.0-0.0-0.0-0.0-1.54","null","<span style='color:GreenYellow; font-size: 70px;'>正确! </span>","null","","","","","","","","","","","","","","","","","","","","","","","","","feedback_test","",""
"","","","","","psychophysics","220","535788","0.0-9.0-0.0-0.0-0.0-0.55","710","","arrowleft","","","","","","","","","","","","","key","arrowleft","16.66568627450889","720","476","arrowleft","true","../../test_img/25.png","自我","matching_task","自我","[""<img src=\""../../test_img/19.png\"" width=150 style=\""vertical-align:middle\"">---生人"",""<img src=\""../../test_img/25.png\"" width=150 style=\""vertical-align:middle\"">---自我"",""<img src=\""../../test_img/12.png\"" width=150 style=\""vertical-align:middle\"">---朋友""]","","",""
"","","","","","html-keyboard-response","221","536296","0.0-9.0-0.0-0.0-0.0-1.55","null","<span style='color:GreenYellow; font-size: 70px;'>正确! </span>","null","","","","","","","","","","","","","","","","","","","","","","","","","feedback_test","",""
"","","","","","psychophysics","222","538437","0.0-9.0-0.0-0.0-0.0-0.56","1125","","arrowright","","","","","","","","","","","","","key","arrowright","16.66692913385882","720","476","arrowright","true","../../test_img/12.png","生人","matching_task","朋友","[""<img src=\""../../test_img/19.png\"" width=150 style=\""vertical-align:middle\"">---生人"",""<img src=\""../../test_img/25.png\"" width=150 style=\""vertical-align:middle\"">---自我"",""<img src=\""../../test_img/12.png\"" width=150 style=\""vertical-align:middle\"">---朋友""]","","",""
"","","","","","html-keyboard-response","223","538954","0.0-9.0-0.0-0.0-0.0-1.56","null","<span style='color:GreenYellow; font-size: 70px;'>正确! </span>","null","","","","","","","","","","","","","","","","","","","","","","","","","feedback_test","",""
"","","","","","psychophysics","224","540840","0.0-9.0-0.0-0.0-0.0-0.57","880","","arrowright","","","","","","","","","","","","","key","arrowright","16.665660714285746","720","476","arrowright","true","../../test_img/25.png","生人","matching_task","自我","[""<img src=\""../../test_img/19.png\"" width=150 style=\""vertical-align:middle\"">---生人"",""<img src=\""../../test_img/25.png\"" width=150 style=\""vertical-align:middle\"">---自我"",""<img src=\""../../test_img/12.png\"" width=150 style=\""vertical-align:middle\"">---朋友""]","","",""
"","","","","","html-keyboard-response","225","541343","0.0-9.0-0.0-0.0-0.0-1.57","null","<span style='color:GreenYellow; font-size: 70px;'>正确! </span>","null","","","","","","","","","","","","","","","","","","","","","","","","","feedback_test","",""
"","","","","","psychophysics","226","543165","0.0-9.0-0.0-0.0-0.0-0.58","806","","arrowleft","","","","","","","","","","","","","key","arrowleft","16.668518518518088","720","476","arrowleft","true","../../test_img/19.png","生人","matching_task","生人","[""<img src=\""../../test_img/19.png\"" width=150 style=\""vertical-align:middle\"">---生人"",""<img src=\""../../test_img/25.png\"" width=150 style=\""vertical-align:middle\"">---自我"",""<img src=\""../../test_img/12.png\"" width=150 style=\""vertical-align:middle\"">---朋友""]","","",""
"","","","","","html-keyboard-response","227","543668","0.0-9.0-0.0-0.0-0.0-1.58","null","<span style='color:GreenYellow; font-size: 70px;'>正确! </span>","null","","","","","","","","","","","","","","","","","","","","","","","","","feedback_test","",""
"","","","","","psychophysics","228","545619","0.0-9.0-0.0-0.0-0.0-0.59","941","","arrowleft","","","","","","","","","","","","","key","arrowleft","16.667241379310546","720","476","arrowleft","true","../../test_img/12.png","朋友","matching_task","朋友","[""<img src=\""../../test_img/19.png\"" width=150 style=\""vertical-align:middle\"">---生人"",""<img src=\""../../test_img/25.png\"" width=150 style=\""vertical-align:middle\"">---自我"",""<img src=\""../../test_img/12.png\"" width=150 style=\""vertical-align:middle\"">---朋友""]","","",""
"","","","","","html-keyboard-response","229","546130","0.0-9.0-0.0-0.0-0.0-1.59","null","<span style='color:GreenYellow; font-size: 70px;'>正确! </span>","null","","","","","","","","","","","","","","","","","","","","","","","","","feedback_test","",""
"","","","","","psychophysics","230","547919","0.0-9.0-0.0-0.0-0.0-0.60","778","","arrowleft","","","","","","","","","","","","","key","arrowleft","16.666981132075033","720","476","arrowleft","true","../../test_img/12.png","朋友","matching_task","朋友","[""<img src=\""../../test_img/19.png\"" width=150 style=\""vertical-align:middle\"">---生人"",""<img src=\""../../test_img/25.png\"" width=150 style=\""vertical-align:middle\"">---自我"",""<img src=\""../../test_img/12.png\"" width=150 style=\""vertical-align:middle\"">---朋友""]","","",""
"","","","","","html-keyboard-response","231","548425","0.0-9.0-0.0-0.0-0.0-1.60","null","<span style='color:GreenYellow; font-size: 70px;'>正确! </span>","null","","","","","","","","","","","","","","","","","","","","","","","","","feedback_test","",""
"","","","","","psychophysics","232","550055","0.0-9.0-0.0-0.0-0.0-0.61","627","","arrowright","","","","","","","","","","","","","key","arrowright","16.66701030927787","720","476","arrowright","true","../../test_img/12.png","自我","matching_task","朋友","[""<img src=\""../../test_img/19.png\"" width=150 style=\""vertical-align:middle\"">---生人"",""<img src=\""../../test_img/25.png\"" width=150 style=\""vertical-align:middle\"">---自我"",""<img src=\""../../test_img/12.png\"" width=150 style=\""vertical-align:middle\"">---朋友""]","","",""
"","","","","","html-keyboard-response","233","550556","0.0-9.0-0.0-0.0-0.0-1.61","null","<span style='color:GreenYellow; font-size: 70px;'>正确! </span>","null","","","","","","","","","","","","","","","","","","","","","","","","","feedback_test","",""
"","","","","","psychophysics","234","552667","0.0-9.0-0.0-0.0-0.0-0.62","1106","","arrowright","","","","","","","","","","","","","key","arrowright","16.67063492063492","720","476","arrowright","true","../../test_img/25.png","生人","matching_task","自我","[""<img src=\""../../test_img/19.png\"" width=150 style=\""vertical-align:middle\"">---生人"",""<img src=\""../../test_img/25.png\"" width=150 style=\""vertical-align:middle\"">---自我"",""<img src=\""../../test_img/12.png\"" width=150 style=\""vertical-align:middle\"">---朋友""]","","",""
"","","","","","html-keyboard-response","235","553178","0.0-9.0-0.0-0.0-0.0-1.62","null","<span style='color:GreenYellow; font-size: 70px;'>正确! </span>","null","","","","","","","","","","","","","","","","","","","","","","","","","feedback_test","",""
"","","","","","psychophysics","236","555281","0.0-9.0-0.0-0.0-0.0-0.63","1099","","arrowleft","","","","","","","","","","","","","key","arrowleft","16.664","720","476","arrowleft","true","../../test_img/12.png","朋友","matching_task","朋友","[""<img src=\""../../test_img/19.png\"" width=150 style=\""vertical-align:middle\"">---生人"",""<img src=\""../../test_img/25.png\"" width=150 style=\""vertical-align:middle\"">---自我"",""<img src=\""../../test_img/12.png\"" width=150 style=\""vertical-align:middle\"">---朋友""]","","",""
"","","","","","html-keyboard-response","237","555793","0.0-9.0-0.0-0.0-0.0-1.63","null","<span style='color:GreenYellow; font-size: 70px;'>正确! </span>","null","","","","","","","","","","","","","","","","","","","","","","","","","feedback_test","",""
"","","","","","psychophysics","238","557640","0.0-9.0-0.0-0.0-0.0-0.64","843","","arrowleft","","","","","","","","","","","","","key","arrowleft","16.666055045871346","720","476","arrowleft","true","../../test_img/19.png","生人","matching_task","生人","[""<img src=\""../../test_img/19.png\"" width=150 style=\""vertical-align:middle\"">---生人"",""<img src=\""../../test_img/25.png\"" width=150 style=\""vertical-align:middle\"">---自我"",""<img src=\""../../test_img/12.png\"" width=150 style=\""vertical-align:middle\"">---朋友""]","","",""
"","","","","","html-keyboard-response","239","558145","0.0-9.0-0.0-0.0-0.0-1.64","null","<span style='color:GreenYellow; font-size: 70px;'>正确! </span>","null","","","","","","","","","","","","","","","","","","","","","","","","","feedback_test","",""
"","","","","","psychophysics","240","559853","0.0-9.0-0.0-0.0-0.0-0.65","697","","arrowright","","","","","","","","","","","","","key","arrowright","16.667326732673498","720","476","arrowright","true","../../test_img/19.png","朋友","matching_task","生人","[""<img src=\""../../test_img/19.png\"" width=150 style=\""vertical-align:middle\"">---生人"",""<img src=\""../../test_img/25.png\"" width=150 style=\""vertical-align:middle\"">---自我"",""<img src=\""../../test_img/12.png\"" width=150 style=\""vertical-align:middle\"">---朋友""]","","",""
"","","","","","html-keyboard-response","241","560365","0.0-9.0-0.0-0.0-0.0-1.65","null","<span style='color:GreenYellow; font-size: 70px;'>正确! </span>","null","","","","","","","","","","","","","","","","","","","","","","","","","feedback_test","",""
"","","","","","psychophysics","242","562324","0.0-9.0-0.0-0.0-0.0-0.66","948","","arrowleft","","","","","","","","","","","","","key","arrowleft","16.666379310345228","720","476","arrowleft","true","../../test_img/19.png","生人","matching_task","生人","[""<img src=\""../../test_img/19.png\"" width=150 style=\""vertical-align:middle\"">---生人"",""<img src=\""../../test_img/25.png\"" width=150 style=\""vertical-align:middle\"">---自我"",""<img src=\""../../test_img/12.png\"" width=150 style=\""vertical-align:middle\"">---朋友""]","","",""
"","","","","","html-keyboard-response","243","562830","0.0-9.0-0.0-0.0-0.0-1.66","null","<span style='color:GreenYellow; font-size: 70px;'>正确! </span>","null","","","","","","","","","","","","","","","","","","","","","","","","","feedback_test","",""
"","","","","","psychophysics","244","564532","0.0-9.0-0.0-0.0-0.0-0.67","687","","arrowleft","","","","","","","","","","","","","key","arrowleft","16.664356435643334","720","476","arrowleft","true","../../test_img/25.png","自我","matching_task","自我","[""<img src=\""../../test_img/19.png\"" width=150 style=\""vertical-align:middle\"">---生人"",""<img src=\""../../test_img/25.png\"" width=150 style=\""vertical-align:middle\"">---自我"",""<img src=\""../../test_img/12.png\"" width=150 style=\""vertical-align:middle\"">---朋友""]","","",""
"","","","","","html-keyboard-response","245","565047","0.0-9.0-0.0-0.0-0.0-1.67","null","<span style='color:GreenYellow; font-size: 70px;'>正确! </span>","null","","","","","","","","","","","","","","","","","","","","","","","","","feedback_test","",""
"","","","","","psychophysics","246","566758","0.0-9.0-0.0-0.0-0.0-0.68","704","","arrowright","","","","","","","","","","","","","key","arrowright","16.665346534653004","720","476","arrowright","true","../../test_img/25.png","朋友","matching_task","自我","[""<img src=\""../../test_img/19.png\"" width=150 style=\""vertical-align:middle\"">---生人"",""<img src=\""../../test_img/25.png\"" width=150 style=\""vertical-align:middle\"">---自我"",""<img src=\""../../test_img/12.png\"" width=150 style=\""vertical-align:middle\"">---朋友""]","","",""
"","","","","","html-keyboard-response","247","567267","0.0-9.0-0.0-0.0-0.0-1.68","null","<span style='color:GreenYellow; font-size: 70px;'>正确! </span>","null","","","","","","","","","","","","","","","","","","","","","","","","","feedback_test","",""
"","","","","","psychophysics","248","569312","0.0-9.0-0.0-0.0-0.0-0.69","1035","","arrowleft","","","","","","","","","","","","","key","arrowleft","16.666942148759947","720","476","arrowright","false","../../test_img/12.png","生人","matching_task","朋友","[""<img src=\""../../test_img/19.png\"" width=150 style=\""vertical-align:middle\"">---生人"",""<img src=\""../../test_img/25.png\"" width=150 style=\""vertical-align:middle\"">---自我"",""<img src=\""../../test_img/12.png\"" width=150 style=\""vertical-align:middle\"">---朋友""]","","",""
"","","","","","html-keyboard-response","249","569815","0.0-9.0-0.0-0.0-0.0-1.69","null","<span style='color:red; font-size: 70px;'>错误! </span>","null","","","","","","","","","","","","","","","","","","","","","","","","","feedback_test","",""
"","","","","","psychophysics","250","571508","0.0-9.0-0.0-0.0-0.0-0.70","681","","arrowleft","","","","","","","","","","","","","key","arrowleft","16.665999999999766","720","476","arrowleft","true","../../test_img/25.png","自我","matching_task","自我","[""<img src=\""../../test_img/19.png\"" width=150 style=\""vertical-align:middle\"">---生人"",""<img src=\""../../test_img/25.png\"" width=150 style=\""vertical-align:middle\"">---自我"",""<img src=\""../../test_img/12.png\"" width=150 style=\""vertical-align:middle\"">---朋友""]","","",""
"","","","","","html-keyboard-response","251","572018","0.0-9.0-0.0-0.0-0.0-1.70","null","<span style='color:GreenYellow; font-size: 70px;'>正确! </span>","null","","","","","","","","","","","","","","","","","","","","","","","","","feedback_test","",""
"","","","","","psychophysics","252","573763","0.0-9.0-0.0-0.0-0.0-0.71","733","","arrowright","","","","","","","","","","","","","key","arrowright","16.665572815534016","720","476","arrowright","true","../../test_img/19.png","自我","matching_task","生人","[""<img src=\""../../test_img/19.png\"" width=150 style=\""vertical-align:middle\"">---生人"",""<img src=\""../../test_img/25.png\"" width=150 style=\""vertical-align:middle\"">---自我"",""<img src=\""../../test_img/12.png\"" width=150 style=\""vertical-align:middle\"">---朋友""]","","",""
"","","","","","html-keyboard-response","253","574274","0.0-9.0-0.0-0.0-0.0-1.71","null","<span style='color:GreenYellow; font-size: 70px;'>正确! </span>","null","","","","","","","","","","","","","","","","","","","","","","","","","feedback_test","",""
"","","","","","html-keyboard-response","254","579422","0.0-9.0-0.0-0.0-1.0","5145","<style>.context{color:white; font-size: 35px; line-height:40px}</style>                          <div><p class='context'>您正确回答了89% 的试次。</p><p class='context'>您的平均反应时为867毫秒。</p><p class='context'>请按任意键进入休息</p></div>"," ","","","","","","","","","","","","","","","","","","","","","","","","","","",""
"","","","","","html-button-response","255","601038","0.0-9.0-0.0-0.0-2.0","21613","
                    <p>知觉匹配任务中，您还剩余4组实验</p>
                    <p>现在是休息时间，当您结束休息后，您可以点击 结束休息 按钮 继续</p>
                    <p>建议休息时间还剩余<span id=""iii"">60</span>秒</p>","0","","","","","","","","","","","","","","","","","","","","","","","","","","",""
"","","","","","psychophysics","256","602830","0.0-9.0-0.0-0.0-0.1-0.72","786","","arrowleft","","","","","","","","","","","","","key","arrowleft","16.666355140187353","720","476","arrowleft","true","../../test_img/12.png","朋友","matching_task","朋友","[""<img src=\""../../test_img/19.png\"" width=150 style=\""vertical-align:middle\"">---生人"",""<img src=\""../../test_img/25.png\"" width=150 style=\""vertical-align:middle\"">---自我"",""<img src=\""../../test_img/12.png\"" width=150 style=\""vertical-align:middle\"">---朋友""]","","",""
"","","","","","html-keyboard-response","257","603335","0.0-9.0-0.0-0.0-0.1-1.72","null","<span style='color:GreenYellow; font-size: 70px;'>正确! </span>","null","","","","","","","","","","","","","","","","","","","","","","","","","feedback_test","",""
