"success","timeout","failed_images","failed_audio","failed_video","trial_type","trial_index","time_elapsed","internal_node_id","rt","stimulus","response","value","item_width_mm","item_height_mm","item_width_px","px2mm","view_dist_mm","item_width_deg","px2deg","scale_factor","win_width_deg","win_height_deg","view_history","response_type","key_press","avg_frame_time","center_x","center_y","correct_response","correct","Image","word","condition","shape","association","screen_id","LeftLable","RightLable"
"true","false","[]","[]","[]","preload","0","1083","0.0-0.0","","","","","","","","","","","","","","","","","","","","","","","","","","","","","",""
"","","","","","html-keyboard-response","1","45820","0.0-1.0","44733","
     <p>您好，欢迎参加本次实验。</p>
     <p>为充分保障您的权利，请确保您已经知晓并同意《参与实验同意书》以及《数据公开知情同意书》。</p>
     <p>如果您未见过上述内容，请咨询实验员。</p>
     <p>如果您选择继续实验，则表示您已经清楚两份知情同意书的内容并同意。</p>
     <p> <div style = ""color: green""><按任意键至下页></div> </p>
     ","arrowdown","","","","","","","","","","","","","","","","","","","","","","","","","","",""
"","","","","","html-keyboard-response","2","49583","0.0-2.0","3762","
     <p>本实验首先需要您填写一些基本个人信息。</p>
     <p> <div style = ""color: green""><按任意键至下页></div></p>
     ","arrowdown","","","","","","","","","","","","","","","","","","","","","","","","","","",""
"","","","","","call-function","3","49586","0.0-3.0-0.0","","","","","","","","","","","","","","","","","","","","","","","","","","","","","",""
"","","","","","survey-html-form","4","55226","0.0-3.0-1.0","5637","","{""Q0"":""05""}","","","","","","","","","","","","","","","","","","","","","","","","","","",""
"","","","","","html-button-response","5","57260","0.0-3.0-2.0","2030","<p style = 'color : white'>您的性别</p>","1","","","","","","","","","","","","","","","","","","","","","","","","","","",""
"","","","","","survey-html-form","6","62056","0.0-3.0-3.0","4803","","{""Q0"":""1998""}","","","","","","","","","","","","","","","","","","","","","","","","","","",""
"","","","","","survey-html-form","7","66893","0.0-3.0-4.0","4835","","{""Q0"":""6""}","","","","","","","","","","","","","","","","","","","","","","","","","","",""
"","","","","","virtual-chinrest","8","172213","0.0-4.0","105307","","","","85.6","53.98","413.1310472243812","4.8317337994345735","592.55","8.262620944487624","50","0.8423477304309037","22.32","11.48","","","","","","","","","","","","","","","",""
"true","","","","","fullscreen","9","175984","0.0-5.0","","","","","","","","","","","","","","","","","","","","","","","","","","","","","",""
"","","","","","instructions","10","227946","0.0-6.0","51960","","","","","","","","","","","","","","[{""page_index"":0,""viewing_time"":5821},{""page_index"":1,""viewing_time"":12752},{""page_index"":2,""viewing_time"":14417},{""page_index"":3,""viewing_time"":7953},{""page_index"":2,""viewing_time"":4697},{""page_index"":3,""viewing_time"":2371},{""page_index"":4,""viewing_time"":3948}]","","","","","","","","","","","","","","",""
"","","","","","psychophysics","11","230487","0.0-7.0-0.0-0.0","null","","null","","","","","","","","","","","","","key","null","16.664893333333506","581.8181692076126","359.9999921972103","arrowright","false","../../test_img/25.png","自我","prac_matching_task","自我","[""<img src=\""../../test_img/12.png\"" width=150 style=\""vertical-align:middle\"">---生人"",""<img src=\""../../test_img/25.png\"" width=150 style=\""vertical-align:middle\"">---自我"",""<img src=\""../../test_img/19.png\"" width=150 style=\""vertical-align:middle\"">---朋友""]","","",""
"","","","","","html-keyboard-response","12","230802","0.0-7.0-0.0-1.0","null","<span class='add_' style='color:yellow; font-size: 70px;'> 太慢! </span>","null","","","","","","","","","","","","","","","","","","","","","","","","","feedback_test","",""
"","","","","","psychophysics","13","232615","0.0-7.0-0.0-0.1","810","","arrowleft","","","","","","","","","","","","","key","arrowleft","16.672897196261683","581.8181692076126","359.9999921972103","arrowright","false","../../test_img/25.png","自我","prac_matching_task","自我","[""<img src=\""../../test_img/12.png\"" width=150 style=\""vertical-align:middle\"">---生人"",""<img src=\""../../test_img/25.png\"" width=150 style=\""vertical-align:middle\"">---自我"",""<img src=\""../../test_img/19.png\"" width=150 style=\""vertical-align:middle\"">---朋友""]","","",""
"","","","","","html-keyboard-response","14","232921","0.0-7.0-0.0-1.1","null","<span style='color:red; font-size: 70px;'>错误! </span>","null","","","","","","","","","","","","","","","","","","","","","","","","","feedback_test","",""
"","","","","","psychophysics","15","235156","0.0-7.0-0.0-0.2","1204","","arrowleft","","","","","","","","","","","","","key","arrowleft","16.66651127819555","581.8181692076126","359.9999921972103","arrowleft","true","../../test_img/19.png","自我","prac_matching_task","朋友","[""<img src=\""../../test_img/12.png\"" width=150 style=\""vertical-align:middle\"">---生人"",""<img src=\""../../test_img/25.png\"" width=150 style=\""vertical-align:middle\"">---自我"",""<img src=\""../../test_img/19.png\"" width=150 style=\""vertical-align:middle\"">---朋友""]","","",""
"","","","","","html-keyboard-response","16","235473","0.0-7.0-0.0-1.2","null","<span style='color:GreenYellow; font-size: 70px;'>正确! </span>","null","","","","","","","","","","","","","","","","","","","","","","","","","feedback_test","",""
"","","","","","psychophysics","17","237312","0.0-7.0-0.0-0.3","801","","arrowright","","","","","","","","","","","","","key","arrowright","16.6697247706422","581.8181692076126","359.9999921972103","arrowright","true","../../test_img/12.png","生人","prac_matching_task","生人","[""<img src=\""../../test_img/12.png\"" width=150 style=\""vertical-align:middle\"">---生人"",""<img src=\""../../test_img/25.png\"" width=150 style=\""vertical-align:middle\"">---自我"",""<img src=\""../../test_img/19.png\"" width=150 style=\""vertical-align:middle\"">---朋友""]","","",""
"","","","","","html-keyboard-response","18","237617","0.0-7.0-0.0-1.3","null","<span style='color:GreenYellow; font-size: 70px;'>正确! </span>","null","","","","","","","","","","","","","","","","","","","","","","","","","feedback_test","",""
"","","","","","psychophysics","19","239714","0.0-7.0-0.0-0.4","1078","","arrowright","","","","","","","","","","","","","key","arrowright","16.668548387096962","581.8181692076126","359.9999921972103","arrowleft","false","../../test_img/25.png","朋友","prac_matching_task","自我","[""<img src=\""../../test_img/12.png\"" width=150 style=\""vertical-align:middle\"">---生人"",""<img src=\""../../test_img/25.png\"" width=150 style=\""vertical-align:middle\"">---自我"",""<img src=\""../../test_img/19.png\"" width=150 style=\""vertical-align:middle\"">---朋友""]","","",""
"","","","","","html-keyboard-response","20","240017","0.0-7.0-0.0-1.4","null","<span style='color:red; font-size: 70px;'>错误! </span>","null","","","","","","","","","","","","","","","","","","","","","","","","","feedback_test","",""
"","","","","","psychophysics","21","242195","0.0-7.0-0.0-0.5","1173","","arrowright","","","","","","","","","","","","","key","arrowright","16.669767441860646","581.8181692076126","359.9999921972103","arrowright","true","../../test_img/19.png","朋友","prac_matching_task","朋友","[""<img src=\""../../test_img/12.png\"" width=150 style=\""vertical-align:middle\"">---生人"",""<img src=\""../../test_img/25.png\"" width=150 style=\""vertical-align:middle\"">---自我"",""<img src=\""../../test_img/19.png\"" width=150 style=\""vertical-align:middle\"">---朋友""]","","",""
"","","","","","html-keyboard-response","22","242501","0.0-7.0-0.0-1.5","null","<span style='color:GreenYellow; font-size: 70px;'>正确! </span>","null","","","","","","","","","","","","","","","","","","","","","","","","","feedback_test","",""
"","","","","","psychophysics","23","244229","0.0-7.0-0.0-0.6","709","","arrowright","","","","","","","","","","","","","key","arrowright","16.667117647058845","581.8181692076126","359.9999921972103","arrowleft","false","../../test_img/12.png","自我","prac_matching_task","生人","[""<img src=\""../../test_img/12.png\"" width=150 style=\""vertical-align:middle\"">---生人"",""<img src=\""../../test_img/25.png\"" width=150 style=\""vertical-align:middle\"">---自我"",""<img src=\""../../test_img/19.png\"" width=150 style=\""vertical-align:middle\"">---朋友""]","","",""
"","","","","","html-keyboard-response","24","244537","0.0-7.0-0.0-1.6","null","<span style='color:red; font-size: 70px;'>错误! </span>","null","","","","","","","","","","","","","","","","","","","","","","","","","feedback_test","",""
"","","","","","psychophysics","25","247054","0.0-7.0-0.0-0.7","null","","null","","","","","","","","","","","","","key","null","16.670469798657678","581.8181692076126","359.9999921972103","arrowright","false","../../test_img/19.png","朋友","prac_matching_task","朋友","[""<img src=\""../../test_img/12.png\"" width=150 style=\""vertical-align:middle\"">---生人"",""<img src=\""../../test_img/25.png\"" width=150 style=\""vertical-align:middle\"">---自我"",""<img src=\""../../test_img/19.png\"" width=150 style=\""vertical-align:middle\"">---朋友""]","","",""
"","","","","","html-keyboard-response","26","247370","0.0-7.0-0.0-1.7","null","<span class='add_' style='color:yellow; font-size: 70px;'> 太慢! </span>","null","","","","","","","","","","","","","","","","","","","","","","","","","feedback_test","",""
"","","","","","psychophysics","27","249479","0.0-7.0-0.0-0.8","1092","","arrowleft","","","","","","","","","","","","","key","arrowleft","16.667854838709783","581.8181692076126","359.9999921972103","arrowleft","true","../../test_img/19.png","生人","prac_matching_task","朋友","[""<img src=\""../../test_img/12.png\"" width=150 style=\""vertical-align:middle\"">---生人"",""<img src=\""../../test_img/25.png\"" width=150 style=\""vertical-align:middle\"">---自我"",""<img src=\""../../test_img/19.png\"" width=150 style=\""vertical-align:middle\"">---朋友""]","","",""
"","","","","","html-keyboard-response","28","249782","0.0-7.0-0.0-1.8","null","<span style='color:GreenYellow; font-size: 70px;'>正确! </span>","null","","","","","","","","","","","","","","","","","","","","","","","","","feedback_test","",""
"","","","","","psychophysics","29","251427","0.0-7.0-0.0-0.9","638","","arrowright","","","","","","","","","","","","","key","arrowright","16.66954639175254","581.8181692076126","359.9999921972103","arrowleft","false","../../test_img/12.png","朋友","prac_matching_task","生人","[""<img src=\""../../test_img/12.png\"" width=150 style=\""vertical-align:middle\"">---生人"",""<img src=\""../../test_img/25.png\"" width=150 style=\""vertical-align:middle\"">---自我"",""<img src=\""../../test_img/19.png\"" width=150 style=\""vertical-align:middle\"">---朋友""]","","",""
"","","","","","html-keyboard-response","30","251733","0.0-7.0-0.0-1.9","null","<span style='color:red; font-size: 70px;'>错误! </span>","null","","","","","","","","","","","","","","","","","","","","","","","","","feedback_test","",""
"","","","","","psychophysics","31","253567","0.0-7.0-0.0-0.10","813","","arrowright","","","","","","","","","","","","","key","arrowright","16.6592592592591","581.8181692076126","359.9999921972103","arrowright","true","../../test_img/12.png","生人","prac_matching_task","生人","[""<img src=\""../../test_img/12.png\"" width=150 style=\""vertical-align:middle\"">---生人"",""<img src=\""../../test_img/25.png\"" width=150 style=\""vertical-align:middle\"">---自我"",""<img src=\""../../test_img/19.png\"" width=150 style=\""vertical-align:middle\"">---朋友""]","","",""
"","","","","","html-keyboard-response","32","253880","0.0-7.0-0.0-1.10","null","<span style='color:GreenYellow; font-size: 70px;'>正确! </span>","null","","","","","","","","","","","","","","","","","","","","","","","","","feedback_test","",""
"","","","","","psychophysics","33","255952","0.0-7.0-0.0-0.11","1064","","arrowleft","","","","","","","","","","","","","key","arrowleft","16.667590163934396","581.8181692076126","359.9999921972103","arrowleft","true","../../test_img/25.png","生人","prac_matching_task","自我","[""<img src=\""../../test_img/12.png\"" width=150 style=\""vertical-align:middle\"">---生人"",""<img src=\""../../test_img/25.png\"" width=150 style=\""vertical-align:middle\"">---自我"",""<img src=\""../../test_img/19.png\"" width=150 style=\""vertical-align:middle\"">---朋友""]","","",""
"","","","","","html-keyboard-response","34","256264","0.0-7.0-0.0-1.11","null","<span style='color:GreenYellow; font-size: 70px;'>正确! </span>","null","","","","","","","","","","","","","","","","","","","","","","","","","feedback_test","",""
"","","","","","psychophysics","35","258693","0.0-7.0-0.0-0.12","1418","","arrowright","","","","","","","","","","","","","key","arrowright","16.666986111111125","581.8181692076126","359.9999921972103","arrowright","true","../../test_img/25.png","自我","prac_matching_task","自我","[""<img src=\""../../test_img/12.png\"" width=150 style=\""vertical-align:middle\"">---生人"",""<img src=\""../../test_img/25.png\"" width=150 style=\""vertical-align:middle\"">---自我"",""<img src=\""../../test_img/19.png\"" width=150 style=\""vertical-align:middle\"">---朋友""]","","",""
"","","","","","html-keyboard-response","36","259009","0.0-7.0-0.0-1.12","null","<span style='color:GreenYellow; font-size: 70px;'>正确! </span>","null","","","","","","","","","","","","","","","","","","","","","","","","","feedback_test","",""
"","","","","","psychophysics","37","261445","0.0-7.0-0.0-0.13","1424","","arrowright","","","","","","","","","","","","","key","arrowright","16.672413793103246","581.8181692076126","359.9999921972103","arrowleft","false","../../test_img/25.png","生人","prac_matching_task","自我","[""<img src=\""../../test_img/12.png\"" width=150 style=\""vertical-align:middle\"">---生人"",""<img src=\""../../test_img/25.png\"" width=150 style=\""vertical-align:middle\"">---自我"",""<img src=\""../../test_img/19.png\"" width=150 style=\""vertical-align:middle\"">---朋友""]","","",""
"","","","","","html-keyboard-response","38","261751","0.0-7.0-0.0-1.13","null","<span style='color:red; font-size: 70px;'>错误! </span>","null","","","","","","","","","","","","","","","","","","","","","","","","","feedback_test","",""
"","","","","","psychophysics","39","264097","0.0-7.0-0.0-0.14","1326","","arrowleft","","","","","","","","","","","","","key","arrowleft","16.660431654676174","581.8181692076126","359.9999921972103","arrowleft","true","../../test_img/19.png","生人","prac_matching_task","朋友","[""<img src=\""../../test_img/12.png\"" width=150 style=\""vertical-align:middle\"">---生人"",""<img src=\""../../test_img/25.png\"" width=150 style=\""vertical-align:middle\"">---自我"",""<img src=\""../../test_img/19.png\"" width=150 style=\""vertical-align:middle\"">---朋友""]","","",""
"","","","","","html-keyboard-response","40","264402","0.0-7.0-0.0-1.14","null","<span style='color:GreenYellow; font-size: 70px;'>正确! </span>","null","","","","","","","","","","","","","","","","","","","","","","","","","feedback_test","",""
"","","","","","psychophysics","41","266747","0.0-7.0-0.0-0.15","1326","","arrowleft","","","","","","","","","","","","","key","arrowleft","16.66867625899278","581.8181692076126","359.9999921972103","arrowright","false","../../test_img/25.png","自我","prac_matching_task","自我","[""<img src=\""../../test_img/12.png\"" width=150 style=\""vertical-align:middle\"">---生人"",""<img src=\""../../test_img/25.png\"" width=150 style=\""vertical-align:middle\"">---自我"",""<img src=\""../../test_img/19.png\"" width=150 style=\""vertical-align:middle\"">---朋友""]","","",""
"","","","","","html-keyboard-response","42","267049","0.0-7.0-0.0-1.15","null","<span style='color:red; font-size: 70px;'>错误! </span>","null","","","","","","","","","","","","","","","","","","","","","","","","","feedback_test","",""
"","","","","","psychophysics","43","269011","0.0-7.0-0.0-0.16","953","","arrowright","","","","","","","","","","","","","key","arrowright","16.669827586206495","581.8181692076126","359.9999921972103","arrowright","true","../../test_img/19.png","朋友","prac_matching_task","朋友","[""<img src=\""../../test_img/12.png\"" width=150 style=\""vertical-align:middle\"">---生人"",""<img src=\""../../test_img/25.png\"" width=150 style=\""vertical-align:middle\"">---自我"",""<img src=\""../../test_img/19.png\"" width=150 style=\""vertical-align:middle\"">---朋友""]","","",""
"","","","","","html-keyboard-response","44","269325","0.0-7.0-0.0-1.16","null","<span style='color:GreenYellow; font-size: 70px;'>正确! </span>","null","","","","","","","","","","","","","","","","","","","","","","","","","feedback_test","",""
"","","","","","psychophysics","45","271063","0.0-7.0-0.0-0.17","725","","arrowright","","","","","","","","","","","","","key","arrowright","16.670349514562844","581.8181692076126","359.9999921972103","arrowleft","false","../../test_img/12.png","朋友","prac_matching_task","生人","[""<img src=\""../../test_img/12.png\"" width=150 style=\""vertical-align:middle\"">---生人"",""<img src=\""../../test_img/25.png\"" width=150 style=\""vertical-align:middle\"">---自我"",""<img src=\""../../test_img/19.png\"" width=150 style=\""vertical-align:middle\"">---朋友""]","","",""
"","","","","","html-keyboard-response","46","271377","0.0-7.0-0.0-1.17","null","<span style='color:red; font-size: 70px;'>错误! </span>","null","","","","","","","","","","","","","","","","","","","","","","","","","feedback_test","",""
"","","","","","psychophysics","47","273080","0.0-7.0-0.0-0.18","691","","arrowright","","","","","","","","","","","","","key","arrowright","16.668772277227454","581.8181692076126","359.9999921972103","arrowleft","false","../../test_img/12.png","自我","prac_matching_task","生人","[""<img src=\""../../test_img/12.png\"" width=150 style=\""vertical-align:middle\"">---生人"",""<img src=\""../../test_img/25.png\"" width=150 style=\""vertical-align:middle\"">---自我"",""<img src=\""../../test_img/19.png\"" width=150 style=\""vertical-align:middle\"">---朋友""]","","",""
"","","","","","html-keyboard-response","48","273385","0.0-7.0-0.0-1.18","null","<span style='color:red; font-size: 70px;'>错误! </span>","null","","","","","","","","","","","","","","","","","","","","","","","","","feedback_test","",""
"","","","","","psychophysics","49","275295","0.0-7.0-0.0-0.19","903","","arrowright","","","","","","","","","","","","","key","arrowright","16.671681415928894","581.8181692076126","359.9999921972103","arrowleft","false","../../test_img/19.png","自我","prac_matching_task","朋友","[""<img src=\""../../test_img/12.png\"" width=150 style=\""vertical-align:middle\"">---生人"",""<img src=\""../../test_img/25.png\"" width=150 style=\""vertical-align:middle\"">---自我"",""<img src=\""../../test_img/19.png\"" width=150 style=\""vertical-align:middle\"">---朋友""]","","",""
"","","","","","html-keyboard-response","50","275611","0.0-7.0-0.0-1.19","null","<span style='color:red; font-size: 70px;'>错误! </span>","null","","","","","","","","","","","","","","","","","","","","","","","","","feedback_test","",""
"","","","","","psychophysics","51","277521","0.0-7.0-0.0-0.20","899","","arrowright","","","","","","","","","","","","","key","arrowright","16.669433628318654","581.8181692076126","359.9999921972103","arrowright","true","../../test_img/12.png","生人","prac_matching_task","生人","[""<img src=\""../../test_img/12.png\"" width=150 style=\""vertical-align:middle\"">---生人"",""<img src=\""../../test_img/25.png\"" width=150 style=\""vertical-align:middle\"">---自我"",""<img src=\""../../test_img/19.png\"" width=150 style=\""vertical-align:middle\"">---朋友""]","","",""
"","","","","","html-keyboard-response","52","277825","0.0-7.0-0.0-1.20","null","<span style='color:GreenYellow; font-size: 70px;'>正确! </span>","null","","","","","","","","","","","","","","","","","","","","","","","","","feedback_test","",""
"","","","","","psychophysics","53","279728","0.0-7.0-0.0-0.21","888","","arrowleft","","","","","","","","","","","","","key","arrowleft","16.664707964601973","581.8181692076126","359.9999921972103","arrowright","false","../../test_img/19.png","朋友","prac_matching_task","朋友","[""<img src=\""../../test_img/12.png\"" width=150 style=\""vertical-align:middle\"">---生人"",""<img src=\""../../test_img/25.png\"" width=150 style=\""vertical-align:middle\"">---自我"",""<img src=\""../../test_img/19.png\"" width=150 style=\""vertical-align:middle\"">---朋友""]","","",""
"","","","","","html-keyboard-response","54","280033","0.0-7.0-0.0-1.21","null","<span style='color:red; font-size: 70px;'>错误! </span>","null","","","","","","","","","","","","","","","","","","","","","","","","","feedback_test","",""
"","","","","","psychophysics","55","281762","0.0-7.0-0.0-0.22","721","","arrowright","","","","","","","","","","","","","key","arrowright","16.668098039215764","581.8181692076126","359.9999921972103","arrowright","true","../../test_img/12.png","生人","prac_matching_task","生人","[""<img src=\""../../test_img/12.png\"" width=150 style=\""vertical-align:middle\"">---生人"",""<img src=\""../../test_img/25.png\"" width=150 style=\""vertical-align:middle\"">---自我"",""<img src=\""../../test_img/19.png\"" width=150 style=\""vertical-align:middle\"">---朋友""]","","",""
"","","","","","html-keyboard-response","56","282070","0.0-7.0-0.0-1.22","null","<span style='color:GreenYellow; font-size: 70px;'>正确! </span>","null","","","","","","","","","","","","","","","","","","","","","","","","","feedback_test","",""
"","","","","","psychophysics","57","284068","0.0-7.0-0.0-0.23","978","","arrowleft","","","","","","","","","","","","","key","arrowleft","16.67264957264967","581.8181692076126","359.9999921972103","arrowleft","true","../../test_img/25.png","朋友","prac_matching_task","自我","[""<img src=\""../../test_img/12.png\"" width=150 style=\""vertical-align:middle\"">---生人"",""<img src=\""../../test_img/25.png\"" width=150 style=\""vertical-align:middle\"">---自我"",""<img src=\""../../test_img/19.png\"" width=150 style=\""vertical-align:middle\"">---朋友""]","","",""
"","","","","","html-keyboard-response","58","284380","0.0-7.0-0.0-1.23","null","<span style='color:GreenYellow; font-size: 70px;'>正确! </span>","null","","","","","","","","","","","","","","","","","","","","","","","","","feedback_test","",""
"","","","","","html-keyboard-response","59","310907","0.0-7.0-1.0-0.0","26517","<style>.context{color:white; font-size: 35px; line-height:40px}</style>                          <div><p class='context'>您正确回答了50% 的试次。</p ><p class='context'>您的平均反应时为1037毫秒。</p >"," ","","","","","","","","","","","","","","","","","","","","","","","","","","",""
"","","","","","instructions","60","351966","0.0-7.0-1.0-1.0","41056","","","","","","","","","","","","","","[{""page_index"":0,""viewing_time"":5917},{""page_index"":1,""viewing_time"":12422},{""page_index"":2,""viewing_time"":2297},{""page_index"":1,""viewing_time"":19188},{""page_index"":2,""viewing_time"":766},{""page_index"":3,""viewing_time"":467}]","","","","","","","","","","","","","","",""
"","","","","","psychophysics","61","353956","0.0-7.1-0.1-0.24","975","","arrowleft","","","","","","","","","","","","","key","arrowleft","16.669372881355724","581.8181692076126","359.9999921972103","arrowleft","true","../../test_img/12.png","朋友","prac_matching_task","生人","[""<img src=\""../../test_img/12.png\"" width=150 style=\""vertical-align:middle\"">---生人"",""<img src=\""../../test_img/25.png\"" width=150 style=\""vertical-align:middle\"">---自我"",""<img src=\""../../test_img/19.png\"" width=150 style=\""vertical-align:middle\"">---朋友""]","","",""
"","","","","","html-keyboard-response","62","354259","0.0-7.1-0.1-1.24","null","<span style='color:GreenYellow; font-size: 70px;'>正确! </span>","null","","","","","","","","","","","","","","","","","","","","","","","","","feedback_test","",""
"","","","","","psychophysics","63","356488","0.0-7.1-0.1-0.25","1222","","arrowright","","","","","","","","","","","","","key","arrowright","16.667772727272787","581.8181692076126","359.9999921972103","arrowleft","false","../../test_img/19.png","自我","prac_matching_task","朋友","[""<img src=\""../../test_img/12.png\"" width=150 style=\""vertical-align:middle\"">---生人"",""<img src=\""../../test_img/25.png\"" width=150 style=\""vertical-align:middle\"">---自我"",""<img src=\""../../test_img/19.png\"" width=150 style=\""vertical-align:middle\"">---朋友""]","","",""
"","","","","","html-keyboard-response","64","356804","0.0-7.1-0.1-1.25","null","<span style='color:red; font-size: 70px;'>错误! </span>","null","","","","","","","","","","","","","","","","","","","","","","","","","feedback_test","",""
"","","","","","psychophysics","65","358706","0.0-7.1-0.1-0.26","891","","arrowleft","","","","","","","","","","","","","key","arrowleft","16.673214285713975","581.8181692076126","359.9999921972103","arrowleft","true","../../test_img/12.png","自我","prac_matching_task","生人","[""<img src=\""../../test_img/12.png\"" width=150 style=\""vertical-align:middle\"">---生人"",""<img src=\""../../test_img/25.png\"" width=150 style=\""vertical-align:middle\"">---自我"",""<img src=\""../../test_img/19.png\"" width=150 style=\""vertical-align:middle\"">---朋友""]","","",""
"","","","","","html-keyboard-response","66","359010","0.0-7.1-0.1-1.26","null","<span style='color:GreenYellow; font-size: 70px;'>正确! </span>","null","","","","","","","","","","","","","","","","","","","","","","","","","feedback_test","",""
"","","","","","psychophysics","67","361206","0.0-7.1-0.1-0.27","1178","","arrowright","","","","","","","","","","","","","key","arrowright","16.668030534351054","581.8181692076126","359.9999921972103","arrowright","true","../../test_img/25.png","自我","prac_matching_task","自我","[""<img src=\""../../test_img/12.png\"" width=150 style=\""vertical-align:middle\"">---生人"",""<img src=\""../../test_img/25.png\"" width=150 style=\""vertical-align:middle\"">---自我"",""<img src=\""../../test_img/19.png\"" width=150 style=\""vertical-align:middle\"">---朋友""]","","",""
"","","","","","html-keyboard-response","68","361518","0.0-7.1-0.1-1.27","null","<span style='color:GreenYellow; font-size: 70px;'>正确! </span>","null","","","","","","","","","","","","","","","","","","","","","","","","","feedback_test","",""
"","","","","","psychophysics","69","363539","0.0-7.1-0.1-0.28","1008","","arrowright","","","","","","","","","","","","","key","arrowright","16.67126050420172","581.8181692076126","359.9999921972103","arrowright","true","../../test_img/25.png","自我","prac_matching_task","自我","[""<img src=\""../../test_img/12.png\"" width=150 style=\""vertical-align:middle\"">---生人"",""<img src=\""../../test_img/25.png\"" width=150 style=\""vertical-align:middle\"">---自我"",""<img src=\""../../test_img/19.png\"" width=150 style=\""vertical-align:middle\"">---朋友""]","","",""
"","","","","","html-keyboard-response","70","363853","0.0-7.1-0.1-1.28","null","<span style='color:GreenYellow; font-size: 70px;'>正确! </span>","null","","","","","","","","","","","","","","","","","","","","","","","","","feedback_test","",""
"","","","","","psychophysics","71","365770","0.0-7.1-0.1-0.29","906","","arrowleft","","","","","","","","","","","","","key","arrowleft","16.66530973451321","581.8181692076126","359.9999921972103","arrowleft","true","../../test_img/25.png","生人","prac_matching_task","自我","[""<img src=\""../../test_img/12.png\"" width=150 style=\""vertical-align:middle\"">---生人"",""<img src=\""../../test_img/25.png\"" width=150 style=\""vertical-align:middle\"">---自我"",""<img src=\""../../test_img/19.png\"" width=150 style=\""vertical-align:middle\"">---朋友""]","","",""
"","","","","","html-keyboard-response","72","366075","0.0-7.1-0.1-1.29","null","<span style='color:GreenYellow; font-size: 70px;'>正确! </span>","null","","","","","","","","","","","","","","","","","","","","","","","","","feedback_test","",""
"","","","","","psychophysics","73","368174","0.0-7.1-0.1-0.30","1076","","arrowright","","","","","","","","","","","","","key","arrowright","16.669725806451396","581.8181692076126","359.9999921972103","arrowright","true","../../test_img/12.png","生人","prac_matching_task","生人","[""<img src=\""../../test_img/12.png\"" width=150 style=\""vertical-align:middle\"">---生人"",""<img src=\""../../test_img/25.png\"" width=150 style=\""vertical-align:middle\"">---自我"",""<img src=\""../../test_img/19.png\"" width=150 style=\""vertical-align:middle\"">---朋友""]","","",""
"","","","","","html-keyboard-response","74","368484","0.0-7.1-0.1-1.30","null","<span style='color:GreenYellow; font-size: 70px;'>正确! </span>","null","","","","","","","","","","","","","","","","","","","","","","","","","feedback_test","",""
"","","","","","psychophysics","75","370621","0.0-7.1-0.1-0.31","1123","","arrowleft","","","","","","","","","","","","","key","arrowleft","16.669653543307334","581.8181692076126","359.9999921972103","arrowleft","true","../../test_img/19.png","生人","prac_matching_task","朋友","[""<img src=\""../../test_img/12.png\"" width=150 style=\""vertical-align:middle\"">---生人"",""<img src=\""../../test_img/25.png\"" width=150 style=\""vertical-align:middle\"">---自我"",""<img src=\""../../test_img/19.png\"" width=150 style=\""vertical-align:middle\"">---朋友""]","","",""
"","","","","","html-keyboard-response","76","370935","0.0-7.1-0.1-1.31","null","<span style='color:GreenYellow; font-size: 70px;'>正确! </span>","null","","","","","","","","","","","","","","","","","","","","","","","","","feedback_test","",""
"","","","","","psychophysics","77","372762","0.0-7.1-0.1-0.32","813","","arrowright","","","","","","","","","","","","","key","arrowright","16.670481481481048","581.8181692076126","359.9999921972103","arrowright","true","../../test_img/12.png","生人","prac_matching_task","生人","[""<img src=\""../../test_img/12.png\"" width=150 style=\""vertical-align:middle\"">---生人"",""<img src=\""../../test_img/25.png\"" width=150 style=\""vertical-align:middle\"">---自我"",""<img src=\""../../test_img/19.png\"" width=150 style=\""vertical-align:middle\"">---朋友""]","","",""
"","","","","","html-keyboard-response","78","373078","0.0-7.1-0.1-1.32","null","<span style='color:GreenYellow; font-size: 70px;'>正确! </span>","null","","","","","","","","","","","","","","","","","","","","","","","","","feedback_test","",""
"","","","","","psychophysics","79","375074","0.0-7.1-0.1-0.33","976","","arrowleft","","","","","","","","","","","","","key","arrowleft","16.657627118644363","581.8181692076126","359.9999921972103","arrowleft","true","../../test_img/25.png","朋友","prac_matching_task","自我","[""<img src=\""../../test_img/12.png\"" width=150 style=\""vertical-align:middle\"">---生人"",""<img src=\""../../test_img/25.png\"" width=150 style=\""vertical-align:middle\"">---自我"",""<img src=\""../../test_img/19.png\"" width=150 style=\""vertical-align:middle\"">---朋友""]","","",""
"","","","","","html-keyboard-response","80","375387","0.0-7.1-0.1-1.33","null","<span style='color:GreenYellow; font-size: 70px;'>正确! </span>","null","","","","","","","","","","","","","","","","","","","","","","","","","feedback_test","",""
"","","","","","psychophysics","81","377706","0.0-7.1-0.1-0.34","1308","","arrowright","","","","","","","","","","","","","key","arrowright","16.66844927536263","581.8181692076126","359.9999921972103","arrowright","true","../../test_img/19.png","朋友","prac_matching_task","朋友","[""<img src=\""../../test_img/12.png\"" width=150 style=\""vertical-align:middle\"">---生人"",""<img src=\""../../test_img/25.png\"" width=150 style=\""vertical-align:middle\"">---自我"",""<img src=\""../../test_img/19.png\"" width=150 style=\""vertical-align:middle\"">---朋友""]","","",""
"","","","","","html-keyboard-response","82","378022","0.0-7.1-0.1-1.34","null","<span style='color:GreenYellow; font-size: 70px;'>正确! </span>","null","","","","","","","","","","","","","","","","","","","","","","","","","feedback_test","",""
"","","","","","psychophysics","83","379757","0.0-7.1-0.1-0.35","726","","arrowright","","","","","","","","","","","","","key","arrowright","16.66843137254895","581.8181692076126","359.9999921972103","arrowright","true","../../test_img/19.png","朋友","prac_matching_task","朋友","[""<img src=\""../../test_img/12.png\"" width=150 style=\""vertical-align:middle\"">---生人"",""<img src=\""../../test_img/25.png\"" width=150 style=\""vertical-align:middle\"">---自我"",""<img src=\""../../test_img/19.png\"" width=150 style=\""vertical-align:middle\"">---朋友""]","","",""
"","","","","","html-keyboard-response","84","380061","0.0-7.1-0.1-1.35","null","<span style='color:GreenYellow; font-size: 70px;'>正确! </span>","null","","","","","","","","","","","","","","","","","","","","","","","","","feedback_test","",""
"","","","","","psychophysics","85","382045","0.0-7.1-0.1-0.36","963","","arrowleft","","","","","","","","","","","","","key","arrowleft","16.669655172413734","581.8181692076126","359.9999921972103","arrowleft","true","../../test_img/12.png","自我","prac_matching_task","生人","[""<img src=\""../../test_img/12.png\"" width=150 style=\""vertical-align:middle\"">---生人"",""<img src=\""../../test_img/25.png\"" width=150 style=\""vertical-align:middle\"">---自我"",""<img src=\""../../test_img/19.png\"" width=150 style=\""vertical-align:middle\"">---朋友""]","","",""
"","","","","","html-keyboard-response","86","382347","0.0-7.1-0.1-1.36","null","<span style='color:GreenYellow; font-size: 70px;'>正确! </span>","null","","","","","","","","","","","","","","","","","","","","","","","","","feedback_test","",""
"","","","","","psychophysics","87","384280","0.0-7.1-0.1-0.37","915","","arrowright","","","","","","","","","","","","","key","arrowright","16.673210526315653","581.8181692076126","359.9999921972103","arrowleft","false","../../test_img/19.png","自我","prac_matching_task","朋友","[""<img src=\""../../test_img/12.png\"" width=150 style=\""vertical-align:middle\"">---生人"",""<img src=\""../../test_img/25.png\"" width=150 style=\""vertical-align:middle\"">---自我"",""<img src=\""../../test_img/19.png\"" width=150 style=\""vertical-align:middle\"">---朋友""]","","",""
"","","","","","html-keyboard-response","88","384591","0.0-7.1-0.1-1.37","null","<span style='color:red; font-size: 70px;'>错误! </span>","null","","","","","","","","","","","","","","","","","","","","","","","","","feedback_test","",""
"","","","","","psychophysics","89","386440","0.0-7.1-0.1-0.38","841","","arrowright","","","","","","","","","","","","","key","arrowright","16.670109090909087","581.8181692076126","359.9999921972103","arrowright","true","../../test_img/12.png","生人","prac_matching_task","生人","[""<img src=\""../../test_img/12.png\"" width=150 style=\""vertical-align:middle\"">---生人"",""<img src=\""../../test_img/25.png\"" width=150 style=\""vertical-align:middle\"">---自我"",""<img src=\""../../test_img/19.png\"" width=150 style=\""vertical-align:middle\"">---朋友""]","","",""
"","","","","","html-keyboard-response","90","386744","0.0-7.1-0.1-1.38","null","<span style='color:GreenYellow; font-size: 70px;'>正确! </span>","null","","","","","","","","","","","","","","","","","","","","","","","","","feedback_test","",""
"","","","","","psychophysics","91","388643","0.0-7.1-0.1-0.39","892","","arrowleft","","","","","","","","","","","","","key","arrowleft","16.66916071428568","581.8181692076126","359.9999921972103","arrowleft","true","../../test_img/12.png","朋友","prac_matching_task","生人","[""<img src=\""../../test_img/12.png\"" width=150 style=\""vertical-align:middle\"">---生人"",""<img src=\""../../test_img/25.png\"" width=150 style=\""vertical-align:middle\"">---自我"",""<img src=\""../../test_img/19.png\"" width=150 style=\""vertical-align:middle\"">---朋友""]","","",""
"","","","","","html-keyboard-response","92","388950","0.0-7.1-0.1-1.39","null","<span style='color:GreenYellow; font-size: 70px;'>正确! </span>","null","","","","","","","","","","","","","","","","","","","","","","","","","feedback_test","",""
"","","","","","psychophysics","93","390856","0.0-7.1-0.1-0.40","890","","arrowright","","","","","","","","","","","","","key","arrowright","16.668548672566132","581.8181692076126","359.9999921972103","arrowright","true","../../test_img/19.png","朋友","prac_matching_task","朋友","[""<img src=\""../../test_img/12.png\"" width=150 style=\""vertical-align:middle\"">---生人"",""<img src=\""../../test_img/25.png\"" width=150 style=\""vertical-align:middle\"">---自我"",""<img src=\""../../test_img/19.png\"" width=150 style=\""vertical-align:middle\"">---朋友""]","","",""
"","","","","","html-keyboard-response","94","391173","0.0-7.1-0.1-1.40","null","<span style='color:GreenYellow; font-size: 70px;'>正确! </span>","null","","","","","","","","","","","","","","","","","","","","","","","","","feedback_test","",""
"","","","","","psychophysics","95","393115","0.0-7.1-0.1-0.41","932","","arrowright","","","","","","","","","","","","","key","arrowright","16.66909565217388","581.8181692076126","359.9999921972103","arrowleft","false","../../test_img/25.png","朋友","prac_matching_task","自我","[""<img src=\""../../test_img/12.png\"" width=150 style=\""vertical-align:middle\"">---生人"",""<img src=\""../../test_img/25.png\"" width=150 style=\""vertical-align:middle\"">---自我"",""<img src=\""../../test_img/19.png\"" width=150 style=\""vertical-align:middle\"">---朋友""]","","",""
"","","","","","html-keyboard-response","96","393419","0.0-7.1-0.1-1.41","null","<span style='color:red; font-size: 70px;'>错误! </span>","null","","","","","","","","","","","","","","","","","","","","","","","","","feedback_test","",""
"","","","","","psychophysics","97","395344","0.0-7.1-0.1-0.42","909","","arrowright","","","","","","","","","","","","","key","arrowright","16.67145614035064","581.8181692076126","359.9999921972103","arrowright","true","../../test_img/25.png","自我","prac_matching_task","自我","[""<img src=\""../../test_img/12.png\"" width=150 style=\""vertical-align:middle\"">---生人"",""<img src=\""../../test_img/25.png\"" width=150 style=\""vertical-align:middle\"">---自我"",""<img src=\""../../test_img/19.png\"" width=150 style=\""vertical-align:middle\"">---朋友""]","","",""
"","","","","","html-keyboard-response","98","395649","0.0-7.1-0.1-1.42","null","<span style='color:GreenYellow; font-size: 70px;'>正确! </span>","null","","","","","","","","","","","","","","","","","","","","","","","","","feedback_test","",""
"","","","","","psychophysics","99","397450","0.0-7.1-0.1-0.43","784","","arrowleft","","","","","","","","","","","","","key","arrowleft","16.671188679245358","581.8181692076126","359.9999921972103","arrowleft","true","../../test_img/25.png","生人","prac_matching_task","自我","[""<img src=\""../../test_img/12.png\"" width=150 style=\""vertical-align:middle\"">---生人"",""<img src=\""../../test_img/25.png\"" width=150 style=\""vertical-align:middle\"">---自我"",""<img src=\""../../test_img/19.png\"" width=150 style=\""vertical-align:middle\"">---朋友""]","","",""
"","","","","","html-keyboard-response","100","397756","0.0-7.1-0.1-1.43","null","<span style='color:GreenYellow; font-size: 70px;'>正确! </span>","null","","","","","","","","","","","","","","","","","","","","","","","","","feedback_test","",""
"","","","","","psychophysics","101","399576","0.0-7.1-0.1-0.44","809","","arrowright","","","","","","","","","","","","","key","arrowright","16.672897196261683","581.8181692076126","359.9999921972103","arrowright","true","../../test_img/25.png","自我","prac_matching_task","自我","[""<img src=\""../../test_img/12.png\"" width=150 style=\""vertical-align:middle\"">---生人"",""<img src=\""../../test_img/25.png\"" width=150 style=\""vertical-align:middle\"">---自我"",""<img src=\""../../test_img/19.png\"" width=150 style=\""vertical-align:middle\"">---朋友""]","","",""
"","","","","","html-keyboard-response","102","399893","0.0-7.1-0.1-1.44","null","<span style='color:GreenYellow; font-size: 70px;'>正确! </span>","null","","","","","","","","","","","","","","","","","","","","","","","","","feedback_test","",""
"","","","","","psychophysics","103","401794","0.0-7.1-0.1-0.45","892","","arrowright","","","","","","","","","","","","","key","arrowright","16.66857142857147","581.8181692076126","359.9999921972103","arrowleft","false","../../test_img/19.png","生人","prac_matching_task","朋友","[""<img src=\""../../test_img/12.png\"" width=150 style=\""vertical-align:middle\"">---生人"",""<img src=\""../../test_img/25.png\"" width=150 style=\""vertical-align:middle\"">---自我"",""<img src=\""../../test_img/19.png\"" width=150 style=\""vertical-align:middle\"">---朋友""]","","",""
"","","","","","html-keyboard-response","104","402103","0.0-7.1-0.1-1.45","null","<span style='color:red; font-size: 70px;'>错误! </span>","null","","","","","","","","","","","","","","","","","","","","","","","","","feedback_test","",""
"","","","","","psychophysics","105","404059","0.0-7.1-0.1-0.46","941","","arrowright","","","","","","","","","","","","","key","arrowright","16.670260869565357","581.8181692076126","359.9999921972103","arrowright","true","../../test_img/19.png","朋友","prac_matching_task","朋友","[""<img src=\""../../test_img/12.png\"" width=150 style=\""vertical-align:middle\"">---生人"",""<img src=\""../../test_img/25.png\"" width=150 style=\""vertical-align:middle\"">---自我"",""<img src=\""../../test_img/19.png\"" width=150 style=\""vertical-align:middle\"">---朋友""]","","",""
"","","","","","html-keyboard-response","106","404368","0.0-7.1-0.1-1.46","null","<span style='color:GreenYellow; font-size: 70px;'>正确! </span>","null","","","","","","","","","","","","","","","","","","","","","","","","","feedback_test","",""
"","","","","","psychophysics","107","406136","0.0-7.1-0.1-0.47","750","","arrowright","","","","","","","","","","","","","key","arrowright","16.666152380952344","581.8181692076126","359.9999921972103","arrowright","true","../../test_img/12.png","生人","prac_matching_task","生人","[""<img src=\""../../test_img/12.png\"" width=150 style=\""vertical-align:middle\"">---生人"",""<img src=\""../../test_img/25.png\"" width=150 style=\""vertical-align:middle\"">---自我"",""<img src=\""../../test_img/19.png\"" width=150 style=\""vertical-align:middle\"">---朋友""]","","",""
"","","","","","html-keyboard-response","108","406440","0.0-7.1-0.1-1.47","null","<span style='color:GreenYellow; font-size: 70px;'>正确! </span>","null","","","","","","","","","","","","","","","","","","","","","","","","","feedback_test","",""
"","","","","","html-keyboard-response","109","411205","0.0-8.0","4754","<style>.context{color:white; font-size: 35px; line-height:40px}</style>                          <div><p class='context'>您正确回答了83% 的试次。</p ><p class='context'>您的平均反应时为938毫秒。</p ><p class='context'>恭喜您完成练习。按任意键进入知觉匹配任务正式实验。</p ><p style = 'color:lightgreen; font-size: 35px;' >正式实验与练习要求相同，请您尽可能又快又准地进行按键反应</p><p class='footer' style='font-size: 22px; line-height:40px;'>请将您右手的<span style='color: lightgreen;'>食指与无名指</span>放在电脑键盘的相应键位上进行按键。</p >","arrowright","","","","","","","","","","","","","","","","","","","","","","","","","","",""
"","","","","","psychophysics","110","413467","0.0-9.0-0.0-0.0-0.0-0.0","1235","","arrowleft","","","","","","","","","","","","","key","arrowleft","16.67238805970132","581.8181692076126","359.9999921972103","arrowleft","true","../../test_img/25.png","生人","matching_task","自我","[""<img src=\""../../test_img/12.png\"" width=150 style=\""vertical-align:middle\"">---生人"",""<img src=\""../../test_img/25.png\"" width=150 style=\""vertical-align:middle\"">---自我"",""<img src=\""../../test_img/19.png\"" width=150 style=\""vertical-align:middle\"">---朋友""]","","",""
"","","","","","html-keyboard-response","111","413998","0.0-9.0-0.0-0.0-0.0-1.0","null","<span style='color:GreenYellow; font-size: 70px;'>正确! </span>","null","","","","","","","","","","","","","","","","","","","","","","","","","feedback_test","",""
"","","","","","psychophysics","112","415975","0.0-9.0-0.0-0.0-0.0-0.1","956","","arrowleft","","","","","","","","","","","","","key","arrowleft","16.664102564102663","581.8181692076126","359.9999921972103","arrowleft","true","../../test_img/19.png","自我","matching_task","朋友","[""<img src=\""../../test_img/12.png\"" width=150 style=\""vertical-align:middle\"">---生人"",""<img src=\""../../test_img/25.png\"" width=150 style=\""vertical-align:middle\"">---自我"",""<img src=\""../../test_img/19.png\"" width=150 style=\""vertical-align:middle\"">---朋友""]","","",""
"","","","","","html-keyboard-response","113","416478","0.0-9.0-0.0-0.0-0.0-1.1","null","<span style='color:GreenYellow; font-size: 70px;'>正确! </span>","null","","","","","","","","","","","","","","","","","","","","","","","","","feedback_test","",""
"","","","","","psychophysics","114","418202","0.0-9.0-0.0-0.0-0.0-0.2","716","","arrowright","","","","","","","","","","","","","key","arrowright","16.66885148514855","581.8181692076126","359.9999921972103","arrowright","true","../../test_img/25.png","自我","matching_task","自我","[""<img src=\""../../test_img/12.png\"" width=150 style=\""vertical-align:middle\"">---生人"",""<img src=\""../../test_img/25.png\"" width=150 style=\""vertical-align:middle\"">---自我"",""<img src=\""../../test_img/19.png\"" width=150 style=\""vertical-align:middle\"">---朋友""]","","",""
"","","","","","html-keyboard-response","115","418709","0.0-9.0-0.0-0.0-0.0-1.2","null","<span style='color:GreenYellow; font-size: 70px;'>正确! </span>","null","","","","","","","","","","","","","","","","","","","","","","","","","feedback_test","",""
"","","","","","psychophysics","116","420640","0.0-9.0-0.0-0.0-0.0-0.3","921","","arrowright","","","","","","","","","","","","","key","arrowright","16.668315789473382","581.8181692076126","359.9999921972103","arrowright","true","../../test_img/19.png","朋友","matching_task","朋友","[""<img src=\""../../test_img/12.png\"" width=150 style=\""vertical-align:middle\"">---生人"",""<img src=\""../../test_img/25.png\"" width=150 style=\""vertical-align:middle\"">---自我"",""<img src=\""../../test_img/19.png\"" width=150 style=\""vertical-align:middle\"">---朋友""]","","",""
"","","","","","html-keyboard-response","117","421150","0.0-9.0-0.0-0.0-0.0-1.3","null","<span style='color:GreenYellow; font-size: 70px;'>正确! </span>","null","","","","","","","","","","","","","","","","","","","","","","","","","feedback_test","",""
"","","","","","psychophysics","118","423086","0.0-9.0-0.0-0.0-0.0-0.4","915","","arrowleft","","","","","","","","","","","","","key","arrowleft","16.66889473684173","581.8181692076126","359.9999921972103","arrowleft","true","../../test_img/12.png","朋友","matching_task","生人","[""<img src=\""../../test_img/12.png\"" width=150 style=\""vertical-align:middle\"">---生人"",""<img src=\""../../test_img/25.png\"" width=150 style=\""vertical-align:middle\"">---自我"",""<img src=\""../../test_img/19.png\"" width=150 style=\""vertical-align:middle\"">---朋友""]","","",""
"","","","","","html-keyboard-response","119","423590","0.0-9.0-0.0-0.0-0.0-1.4","null","<span style='color:GreenYellow; font-size: 70px;'>正确! </span>","null","","","","","","","","","","","","","","","","","","","","","","","","","feedback_test","",""
"","","","","","psychophysics","120","425728","0.0-9.0-0.0-0.0-0.0-0.5","1124","","arrowleft","","","","","","","","","","","","","key","arrowleft","16.670866141732375","581.8181692076126","359.9999921972103","arrowright","false","../../test_img/19.png","朋友","matching_task","朋友","[""<img src=\""../../test_img/12.png\"" width=150 style=\""vertical-align:middle\"">---生人"",""<img src=\""../../test_img/25.png\"" width=150 style=\""vertical-align:middle\"">---自我"",""<img src=\""../../test_img/19.png\"" width=150 style=\""vertical-align:middle\"">---朋友""]","","",""
"","","","","","html-keyboard-response","121","426235","0.0-9.0-0.0-0.0-0.0-1.5","null","<span style='color:red; font-size: 70px;'>错误! </span>","null","","","","","","","","","","","","","","","","","","","","","","","","","feedback_test","",""
"","","","","","psychophysics","122","428137","0.0-9.0-0.0-0.0-0.0-0.6","881","","arrowleft","","","","","","","","","","","","","key","arrowleft","16.672072072071863","581.8181692076126","359.9999921972103","arrowleft","true","../../test_img/25.png","朋友","matching_task","自我","[""<img src=\""../../test_img/12.png\"" width=150 style=\""vertical-align:middle\"">---生人"",""<img src=\""../../test_img/25.png\"" width=150 style=\""vertical-align:middle\"">---自我"",""<img src=\""../../test_img/19.png\"" width=150 style=\""vertical-align:middle\"">---朋友""]","","",""
"","","","","","html-keyboard-response","123","428651","0.0-9.0-0.0-0.0-0.0-1.6","null","<span style='color:GreenYellow; font-size: 70px;'>正确! </span>","null","","","","","","","","","","","","","","","","","","","","","","","","","feedback_test","",""
"","","","","","psychophysics","124","430805","0.0-9.0-0.0-0.0-0.0-0.7","1147","","arrowleft","","","","","","","","","","","","","key","arrowleft","16.66377952755896","581.8181692076126","359.9999921972103","arrowleft","true","../../test_img/19.png","生人","matching_task","朋友","[""<img src=\""../../test_img/12.png\"" width=150 style=\""vertical-align:middle\"">---生人"",""<img src=\""../../test_img/25.png\"" width=150 style=\""vertical-align:middle\"">---自我"",""<img src=\""../../test_img/19.png\"" width=150 style=\""vertical-align:middle\"">---朋友""]","","",""
"","","","","","html-keyboard-response","125","431314","0.0-9.0-0.0-0.0-0.0-1.7","null","<span style='color:GreenYellow; font-size: 70px;'>正确! </span>","null","","","","","","","","","","","","","","","","","","","","","","","","","feedback_test","",""
"","","","","","psychophysics","126","433290","0.0-9.0-0.0-0.0-0.0-0.8","968","","arrowright","","","","","","","","","","","","","key","arrowright","16.66683760683727","581.8181692076126","359.9999921972103","arrowright","true","../../test_img/25.png","自我","matching_task","自我","[""<img src=\""../../test_img/12.png\"" width=150 style=\""vertical-align:middle\"">---生人"",""<img src=\""../../test_img/25.png\"" width=150 style=\""vertical-align:middle\"">---自我"",""<img src=\""../../test_img/19.png\"" width=150 style=\""vertical-align:middle\"">---朋友""]","","",""
"","","","","","html-keyboard-response","127","433793","0.0-9.0-0.0-0.0-0.0-1.8","null","<span style='color:GreenYellow; font-size: 70px;'>正确! </span>","null","","","","","","","","","","","","","","","","","","","","","","","","","feedback_test","",""
"","","","","","psychophysics","128","435713","0.0-9.0-0.0-0.0-0.0-0.9","910","","arrowright","","","","","","","","","","","","","key","arrowright","16.669473684210587","581.8181692076126","359.9999921972103","arrowleft","false","../../test_img/12.png","自我","matching_task","生人","[""<img src=\""../../test_img/12.png\"" width=150 style=\""vertical-align:middle\"">---生人"",""<img src=\""../../test_img/25.png\"" width=150 style=\""vertical-align:middle\"">---自我"",""<img src=\""../../test_img/19.png\"" width=150 style=\""vertical-align:middle\"">---朋友""]","","",""
"","","","","","html-keyboard-response","129","436228","0.0-9.0-0.0-0.0-0.0-1.9","null","<span style='color:red; font-size: 70px;'>错误! </span>","null","","","","","","","","","","","","","","","","","","","","","","","","","feedback_test","",""
"","","","","","psychophysics","130","437947","0.0-9.0-0.0-0.0-0.0-0.10","707","","arrowright","","","","","","","","","","","","","key","arrowright","16.671287128712756","581.8181692076126","359.9999921972103","arrowright","true","../../test_img/12.png","生人","matching_task","生人","[""<img src=\""../../test_img/12.png\"" width=150 style=\""vertical-align:middle\"">---生人"",""<img src=\""../../test_img/25.png\"" width=150 style=\""vertical-align:middle\"">---自我"",""<img src=\""../../test_img/19.png\"" width=150 style=\""vertical-align:middle\"">---朋友""]","","",""
"","","","","","html-keyboard-response","131","438454","0.0-9.0-0.0-0.0-0.0-1.10","null","<span style='color:GreenYellow; font-size: 70px;'>正确! </span>","null","","","","","","","","","","","","","","","","","","","","","","","","","feedback_test","",""
"","","","","","psychophysics","132","440436","0.0-9.0-0.0-0.0-0.0-0.11","963","","arrowright","","","","","","","","","","","","","key","arrowright","16.668837606837737","581.8181692076126","359.9999921972103","arrowright","true","../../test_img/12.png","生人","matching_task","生人","[""<img src=\""../../test_img/12.png\"" width=150 style=\""vertical-align:middle\"">---生人"",""<img src=\""../../test_img/25.png\"" width=150 style=\""vertical-align:middle\"">---自我"",""<img src=\""../../test_img/19.png\"" width=150 style=\""vertical-align:middle\"">---朋友""]","","",""
"","","","","","html-keyboard-response","133","440952","0.0-9.0-0.0-0.0-0.0-1.11","null","<span style='color:GreenYellow; font-size: 70px;'>正确! </span>","null","","","","","","","","","","","","","","","","","","","","","","","","","feedback_test","",""
"","","","","","psychophysics","134","442650","0.0-9.0-0.0-0.0-0.0-0.12","677","","arrowright","","","","","","","","","","","","","key","arrowright","16.66399999999965","581.8181692076126","359.9999921972103","arrowright","true","../../test_img/12.png","生人","matching_task","生人","[""<img src=\""../../test_img/12.png\"" width=150 style=\""vertical-align:middle\"">---生人"",""<img src=\""../../test_img/25.png\"" width=150 style=\""vertical-align:middle\"">---自我"",""<img src=\""../../test_img/19.png\"" width=150 style=\""vertical-align:middle\"">---朋友""]","","",""
"","","","","","html-keyboard-response","135","443161","0.0-9.0-0.0-0.0-0.0-1.12","null","<span style='color:GreenYellow; font-size: 70px;'>正确! </span>","null","","","","","","","","","","","","","","","","","","","","","","","","","feedback_test","",""
"","","","","","psychophysics","136","445230","0.0-9.0-0.0-0.0-0.0-0.13","1057","","arrowleft","","","","","","","","","","","","","key","arrowleft","16.6687317073172","581.8181692076126","359.9999921972103","arrowleft","true","../../test_img/25.png","生人","matching_task","自我","[""<img src=\""../../test_img/12.png\"" width=150 style=\""vertical-align:middle\"">---生人"",""<img src=\""../../test_img/25.png\"" width=150 style=\""vertical-align:middle\"">---自我"",""<img src=\""../../test_img/19.png\"" width=150 style=\""vertical-align:middle\"">---朋友""]","","",""
"","","","","","html-keyboard-response","137","445743","0.0-9.0-0.0-0.0-0.0-1.13","null","<span style='color:GreenYellow; font-size: 70px;'>正确! </span>","null","","","","","","","","","","","","","","","","","","","","","","","","","feedback_test","",""
"","","","","","psychophysics","138","447523","0.0-9.0-0.0-0.0-0.0-0.14","767","","arrowright","","","","","","","","","","","","","key","arrowright","16.67003809523802","581.8181692076126","359.9999921972103","arrowleft","false","../../test_img/19.png","自我","matching_task","朋友","[""<img src=\""../../test_img/12.png\"" width=150 style=\""vertical-align:middle\"">---生人"",""<img src=\""../../test_img/25.png\"" width=150 style=\""vertical-align:middle\"">---自我"",""<img src=\""../../test_img/19.png\"" width=150 style=\""vertical-align:middle\"">---朋友""]","","",""
"","","","","","html-keyboard-response","139","448037","0.0-9.0-0.0-0.0-0.0-1.14","null","<span style='color:red; font-size: 70px;'>错误! </span>","null","","","","","","","","","","","","","","","","","","","","","","","","","feedback_test","",""
"","","","","","psychophysics","140","449781","0.0-9.0-0.0-0.0-0.0-0.15","739","","arrowright","","","","","","","","","","","","","key","arrowright","16.66699029126225","581.8181692076126","359.9999921972103","arrowright","true","../../test_img/12.png","生人","matching_task","生人","[""<img src=\""../../test_img/12.png\"" width=150 style=\""vertical-align:middle\"">---生人"",""<img src=\""../../test_img/25.png\"" width=150 style=\""vertical-align:middle\"">---自我"",""<img src=\""../../test_img/19.png\"" width=150 style=\""vertical-align:middle\"">---朋友""]","","",""
"","","","","","html-keyboard-response","141","450290","0.0-9.0-0.0-0.0-0.0-1.15","null","<span style='color:GreenYellow; font-size: 70px;'>正确! </span>","null","","","","","","","","","","","","","","","","","","","","","","","","","feedback_test","",""
"","","","","","psychophysics","142","452452","0.0-9.0-0.0-0.0-0.0-0.16","1146","","arrowright","","","","","","","","","","","","","key","arrowright","16.669171875000302","581.8181692076126","359.9999921972103","arrowright","true","../../test_img/19.png","朋友","matching_task","朋友","[""<img src=\""../../test_img/12.png\"" width=150 style=\""vertical-align:middle\"">---生人"",""<img src=\""../../test_img/25.png\"" width=150 style=\""vertical-align:middle\"">---自我"",""<img src=\""../../test_img/19.png\"" width=150 style=\""vertical-align:middle\"">---朋友""]","","",""
"","","","","","html-keyboard-response","143","452957","0.0-9.0-0.0-0.0-0.0-1.16","null","<span style='color:GreenYellow; font-size: 70px;'>正确! </span>","null","","","","","","","","","","","","","","","","","","","","","","","","","feedback_test","",""
"","","","","","psychophysics","144","455151","0.0-9.0-0.0-0.0-0.0-0.17","1176","","arrowright","","","","","","","","","","","","","key","arrowright","16.671184615384732","581.8181692076126","359.9999921972103","arrowright","true","../../test_img/19.png","朋友","matching_task","朋友","[""<img src=\""../../test_img/12.png\"" width=150 style=\""vertical-align:middle\"">---生人"",""<img src=\""../../test_img/25.png\"" width=150 style=\""vertical-align:middle\"">---自我"",""<img src=\""../../test_img/19.png\"" width=150 style=\""vertical-align:middle\"">---朋友""]","","",""
"","","","","","html-keyboard-response","145","455665","0.0-9.0-0.0-0.0-0.0-1.17","null","<span style='color:GreenYellow; font-size: 70px;'>正确! </span>","null","","","","","","","","","","","","","","","","","","","","","","","","","feedback_test","",""
"","","","","","psychophysics","146","457619","0.0-9.0-0.0-0.0-0.0-0.18","944","","arrowright","","","","","","","","","","","","","key","arrowright","16.670434782608492","581.8181692076126","359.9999921972103","arrowright","true","../../test_img/25.png","自我","matching_task","自我","[""<img src=\""../../test_img/12.png\"" width=150 style=\""vertical-align:middle\"">---生人"",""<img src=\""../../test_img/25.png\"" width=150 style=\""vertical-align:middle\"">---自我"",""<img src=\""../../test_img/19.png\"" width=150 style=\""vertical-align:middle\"">---朋友""]","","",""
"","","","","","html-keyboard-response","147","458128","0.0-9.0-0.0-0.0-0.0-1.18","null","<span style='color:GreenYellow; font-size: 70px;'>正确! </span>","null","","","","","","","","","","","","","","","","","","","","","","","","","feedback_test","",""
"","","","","","psychophysics","148","459867","0.0-9.0-0.0-0.0-0.0-0.19","724","","arrowright","","","","","","","","","","","","","key","arrowright","16.67087378640754","581.8181692076126","359.9999921972103","arrowright","true","../../test_img/25.png","自我","matching_task","自我","[""<img src=\""../../test_img/12.png\"" width=150 style=\""vertical-align:middle\"">---生人"",""<img src=\""../../test_img/25.png\"" width=150 style=\""vertical-align:middle\"">---自我"",""<img src=\""../../test_img/19.png\"" width=150 style=\""vertical-align:middle\"">---朋友""]","","",""
"","","","","","html-keyboard-response","149","460373","0.0-9.0-0.0-0.0-0.0-1.19","null","<span style='color:GreenYellow; font-size: 70px;'>正确! </span>","null","","","","","","","","","","","","","","","","","","","","","","","","","feedback_test","",""
"","","","","","psychophysics","150","462584","0.0-9.0-0.0-0.0-0.0-0.20","1208","","arrowleft","","","","","","","","","","","","","key","arrowleft","16.671755725190838","581.8181692076126","359.9999921972103","arrowleft","true","../../test_img/19.png","生人","matching_task","朋友","[""<img src=\""../../test_img/12.png\"" width=150 style=\""vertical-align:middle\"">---生人"",""<img src=\""../../test_img/25.png\"" width=150 style=\""vertical-align:middle\"">---自我"",""<img src=\""../../test_img/19.png\"" width=150 style=\""vertical-align:middle\"">---朋友""]","","",""
"","","","","","html-keyboard-response","151","463088","0.0-9.0-0.0-0.0-0.0-1.20","null","<span style='color:GreenYellow; font-size: 70px;'>正确! </span>","null","","","","","","","","","","","","","","","","","","","","","","","","","feedback_test","",""
"","","","","","psychophysics","152","464796","0.0-9.0-0.0-0.0-0.0-0.21","688","","arrowright","","","","","","","","","","","","","key","arrowright","16.65742574257449","581.8181692076126","359.9999921972103","arrowleft","false","../../test_img/12.png","自我","matching_task","生人","[""<img src=\""../../test_img/12.png\"" width=150 style=\""vertical-align:middle\"">---生人"",""<img src=\""../../test_img/25.png\"" width=150 style=\""vertical-align:middle\"">---自我"",""<img src=\""../../test_img/19.png\"" width=150 style=\""vertical-align:middle\"">---朋友""]","","",""
"","","","","","html-keyboard-response","153","465303","0.0-9.0-0.0-0.0-0.0-1.21","null","<span style='color:red; font-size: 70px;'>错误! </span>","null","","","","","","","","","","","","","","","","","","","","","","","","","feedback_test","",""
"","","","","","psychophysics","154","467303","0.0-9.0-0.0-0.0-0.0-0.22","991","","arrowright","","","","","","","","","","","","","key","arrowright","16.668254237288068","581.8181692076126","359.9999921972103","arrowleft","false","../../test_img/25.png","朋友","matching_task","自我","[""<img src=\""../../test_img/12.png\"" width=150 style=\""vertical-align:middle\"">---生人"",""<img src=\""../../test_img/25.png\"" width=150 style=\""vertical-align:middle\"">---自我"",""<img src=\""../../test_img/19.png\"" width=150 style=\""vertical-align:middle\"">---朋友""]","","",""
"","","","","","html-keyboard-response","155","467809","0.0-9.0-0.0-0.0-0.0-1.22","null","<span style='color:red; font-size: 70px;'>错误! </span>","null","","","","","","","","","","","","","","","","","","","","","","","","","feedback_test","",""
"","","","","","psychophysics","156","469736","0.0-9.0-0.0-0.0-0.0-0.23","910","","arrowleft","","","","","","","","","","","","","key","arrowleft","16.672807017543963","581.8181692076126","359.9999921972103","arrowleft","true","../../test_img/12.png","朋友","matching_task","生人","[""<img src=\""../../test_img/12.png\"" width=150 style=\""vertical-align:middle\"">---生人"",""<img src=\""../../test_img/25.png\"" width=150 style=\""vertical-align:middle\"">---自我"",""<img src=\""../../test_img/19.png\"" width=150 style=\""vertical-align:middle\"">---朋友""]","","",""
"","","","","","html-keyboard-response","157","470245","0.0-9.0-0.0-0.0-0.0-1.23","null","<span style='color:GreenYellow; font-size: 70px;'>正确! </span>","null","","","","","","","","","","","","","","","","","","","","","","","","","feedback_test","",""
"","","","","","psychophysics","158","472308","0.0-9.0-0.0-0.0-0.0-0.24","1050","","arrowright","","","","","","","","","","","","","key","arrowright","16.671900826446183","581.8181692076126","359.9999921972103","arrowleft","false","../../test_img/25.png","生人","matching_task","自我","[""<img src=\""../../test_img/12.png\"" width=150 style=\""vertical-align:middle\"">---生人"",""<img src=\""../../test_img/25.png\"" width=150 style=\""vertical-align:middle\"">---自我"",""<img src=\""../../test_img/19.png\"" width=150 style=\""vertical-align:middle\"">---朋友""]","","",""
"","","","","","html-keyboard-response","159","472821","0.0-9.0-0.0-0.0-0.0-1.24","null","<span style='color:red; font-size: 70px;'>错误! </span>","null","","","","","","","","","","","","","","","","","","","","","","","","","feedback_test","",""
"","","","","","psychophysics","160","474620","0.0-9.0-0.0-0.0-0.0-0.25","790","","arrowright","","","","","","","","","","","","","key","arrowright","16.668411214953444","581.8181692076126","359.9999921972103","arrowright","true","../../test_img/12.png","生人","matching_task","生人","[""<img src=\""../../test_img/12.png\"" width=150 style=\""vertical-align:middle\"">---生人"",""<img src=\""../../test_img/25.png\"" width=150 style=\""vertical-align:middle\"">---自我"",""<img src=\""../../test_img/19.png\"" width=150 style=\""vertical-align:middle\"">---朋友""]","","",""
"","","","","","html-keyboard-response","161","475131","0.0-9.0-0.0-0.0-0.0-1.25","null","<span style='color:GreenYellow; font-size: 70px;'>正确! </span>","null","","","","","","","","","","","","","","","","","","","","","","","","","feedback_test","",""
"","","","","","psychophysics","162","477483","0.0-9.0-0.0-0.0-0.0-0.26","1341","","arrowright","","","","","","","","","","","","","key","arrowright","16.669671428571537","581.8181692076126","359.9999921972103","arrowright","true","../../test_img/25.png","自我","matching_task","自我","[""<img src=\""../../test_img/12.png\"" width=150 style=\""vertical-align:middle\"">---生人"",""<img src=\""../../test_img/25.png\"" width=150 style=\""vertical-align:middle\"">---自我"",""<img src=\""../../test_img/19.png\"" width=150 style=\""vertical-align:middle\"">---朋友""]","","",""
"","","","","","html-keyboard-response","163","477989","0.0-9.0-0.0-0.0-0.0-1.26","null","<span style='color:GreenYellow; font-size: 70px;'>正确! </span>","null","","","","","","","","","","","","","","","","","","","","","","","","","feedback_test","",""
"","","","","","psychophysics","164","479833","0.0-9.0-0.0-0.0-0.0-0.27","823","","arrowleft","","","","","","","","","","","","","key","arrowleft","16.65779816513772","581.8181692076126","359.9999921972103","arrowleft","true","../../test_img/25.png","朋友","matching_task","自我","[""<img src=\""../../test_img/12.png\"" width=150 style=\""vertical-align:middle\"">---生人"",""<img src=\""../../test_img/25.png\"" width=150 style=\""vertical-align:middle\"">---自我"",""<img src=\""../../test_img/19.png\"" width=150 style=\""vertical-align:middle\"">---朋友""]","","",""
"","","","","","html-keyboard-response","165","480337","0.0-9.0-0.0-0.0-0.0-1.27","null","<span style='color:GreenYellow; font-size: 70px;'>正确! </span>","null","","","","","","","","","","","","","","","","","","","","","","","","","feedback_test","",""
"","","","","","psychophysics","166","482237","0.0-9.0-0.0-0.0-0.0-0.28","891","","arrowleft","","","","","","","","","","","","","key","arrowleft","16.671910714285332","581.8181692076126","359.9999921972103","arrowright","false","../../test_img/19.png","朋友","matching_task","朋友","[""<img src=\""../../test_img/12.png\"" width=150 style=\""vertical-align:middle\"">---生人"",""<img src=\""../../test_img/25.png\"" width=150 style=\""vertical-align:middle\"">---自我"",""<img src=\""../../test_img/19.png\"" width=150 style=\""vertical-align:middle\"">---朋友""]","","",""
"","","","","","html-keyboard-response","167","482750","0.0-9.0-0.0-0.0-0.0-1.28","null","<span style='color:red; font-size: 70px;'>错误! </span>","null","","","","","","","","","","","","","","","","","","","","","","","","","feedback_test","",""
"","","","","","psychophysics","168","484721","0.0-9.0-0.0-0.0-0.0-0.29","960","","arrowright","","","","","","","","","","","","","key","arrowright","16.67241379310345","581.8181692076126","359.9999921972103","arrowright","true","../../test_img/25.png","自我","matching_task","自我","[""<img src=\""../../test_img/12.png\"" width=150 style=\""vertical-align:middle\"">---生人"",""<img src=\""../../test_img/25.png\"" width=150 style=\""vertical-align:middle\"">---自我"",""<img src=\""../../test_img/19.png\"" width=150 style=\""vertical-align:middle\"">---朋友""]","","",""
"","","","","","html-keyboard-response","169","485227","0.0-9.0-0.0-0.0-0.0-1.29","null","<span style='color:GreenYellow; font-size: 70px;'>正确! </span>","null","","","","","","","","","","","","","","","","","","","","","","","","","feedback_test","",""
"","","","","","psychophysics","170","487270","0.0-9.0-0.0-0.0-0.0-0.30","1026","","arrowleft","","","","","","","","","","","","","key","arrowleft","16.670694214875873","581.8181692076126","359.9999921972103","arrowleft","true","../../test_img/12.png","自我","matching_task","生人","[""<img src=\""../../test_img/12.png\"" width=150 style=\""vertical-align:middle\"">---生人"",""<img src=\""../../test_img/25.png\"" width=150 style=\""vertical-align:middle\"">---自我"",""<img src=\""../../test_img/19.png\"" width=150 style=\""vertical-align:middle\"">---朋友""]","","",""
"","","","","","html-keyboard-response","171","487783","0.0-9.0-0.0-0.0-0.0-1.30","null","<span style='color:GreenYellow; font-size: 70px;'>正确! </span>","null","","","","","","","","","","","","","","","","","","","","","","","","","feedback_test","",""
"","","","","","psychophysics","172","489622","0.0-9.0-0.0-0.0-0.0-0.31","827","","arrowleft","","","","","","","","","","","","","key","arrowleft","16.671296296296298","581.8181692076126","359.9999921972103","arrowleft","true","../../test_img/19.png","生人","matching_task","朋友","[""<img src=\""../../test_img/12.png\"" width=150 style=\""vertical-align:middle\"">---生人"",""<img src=\""../../test_img/25.png\"" width=150 style=\""vertical-align:middle\"">---自我"",""<img src=\""../../test_img/19.png\"" width=150 style=\""vertical-align:middle\"">---朋友""]","","",""
"","","","","","html-keyboard-response","173","490131","0.0-9.0-0.0-0.0-0.0-1.31","null","<span style='color:GreenYellow; font-size: 70px;'>正确! </span>","null","","","","","","","","","","","","","","","","","","","","","","","","","feedback_test","",""
"","","","","","psychophysics","174","491870","0.0-9.0-0.0-0.0-0.0-0.32","725","","arrowright","","","","","","","","","","","","","key","arrowright","16.67333980582573","581.8181692076126","359.9999921972103","arrowright","true","../../test_img/12.png","生人","matching_task","生人","[""<img src=\""../../test_img/12.png\"" width=150 style=\""vertical-align:middle\"">---生人"",""<img src=\""../../test_img/25.png\"" width=150 style=\""vertical-align:middle\"">---自我"",""<img src=\""../../test_img/19.png\"" width=150 style=\""vertical-align:middle\"">---朋友""]","","",""
"","","","","","html-keyboard-response","175","492371","0.0-9.0-0.0-0.0-0.0-1.32","null","<span style='color:GreenYellow; font-size: 70px;'>正确! </span>","null","","","","","","","","","","","","","","","","","","","","","","","","","feedback_test","",""
"","","","","","psychophysics","176","494337","0.0-9.0-0.0-0.0-0.0-0.33","958","","arrowright","","","","","","","","","","","","","key","arrowright","16.668568965517274","581.8181692076126","359.9999921972103","arrowright","true","../../test_img/19.png","朋友","matching_task","朋友","[""<img src=\""../../test_img/12.png\"" width=150 style=\""vertical-align:middle\"">---生人"",""<img src=\""../../test_img/25.png\"" width=150 style=\""vertical-align:middle\"">---自我"",""<img src=\""../../test_img/19.png\"" width=150 style=\""vertical-align:middle\"">---朋友""]","","",""
"","","","","","html-keyboard-response","177","494848","0.0-9.0-0.0-0.0-0.0-1.33","null","<span style='color:GreenYellow; font-size: 70px;'>正确! </span>","null","","","","","","","","","","","","","","","","","","","","","","","","","feedback_test","",""
"","","","","","psychophysics","178","496704","0.0-9.0-0.0-0.0-0.0-0.34","841","","arrowleft","","","","","","","","","","","","","key","arrowleft","16.67049090909052","581.8181692076126","359.9999921972103","arrowleft","true","../../test_img/12.png","朋友","matching_task","生人","[""<img src=\""../../test_img/12.png\"" width=150 style=\""vertical-align:middle\"">---生人"",""<img src=\""../../test_img/25.png\"" width=150 style=\""vertical-align:middle\"">---自我"",""<img src=\""../../test_img/19.png\"" width=150 style=\""vertical-align:middle\"">---朋友""]","","",""
"","","","","","html-keyboard-response","179","497218","0.0-9.0-0.0-0.0-0.0-1.34","null","<span style='color:GreenYellow; font-size: 70px;'>正确! </span>","null","","","","","","","","","","","","","","","","","","","","","","","","","feedback_test","",""
"","","","","","psychophysics","180","499303","0.0-9.0-0.0-0.0-0.0-0.35","1074","","arrowright","","","","","","","","","","","","","key","arrowright","16.669008130081306","581.8181692076126","359.9999921972103","arrowleft","false","../../test_img/19.png","自我","matching_task","朋友","[""<img src=\""../../test_img/12.png\"" width=150 style=\""vertical-align:middle\"">---生人"",""<img src=\""../../test_img/25.png\"" width=150 style=\""vertical-align:middle\"">---自我"",""<img src=\""../../test_img/19.png\"" width=150 style=\""vertical-align:middle\"">---朋友""]","","",""
"","","","","","html-keyboard-response","181","499815","0.0-9.0-0.0-0.0-0.0-1.35","null","<span style='color:red; font-size: 70px;'>错误! </span>","null","","","","","","","","","","","","","","","","","","","","","","","","","feedback_test","",""
"","","","","","psychophysics","182","501921","0.0-9.0-0.0-0.0-0.0-0.36","1092","","arrowright","","","","","","","","","","","","","key","arrowright","16.666831999999935","581.8181692076126","359.9999921972103","arrowright","true","../../test_img/19.png","朋友","matching_task","朋友","[""<img src=\""../../test_img/12.png\"" width=150 style=\""vertical-align:middle\"">---生人"",""<img src=\""../../test_img/25.png\"" width=150 style=\""vertical-align:middle\"">---自我"",""<img src=\""../../test_img/19.png\"" width=150 style=\""vertical-align:middle\"">---朋友""]","","",""
"","","","","","html-keyboard-response","183","502437","0.0-9.0-0.0-0.0-0.0-1.36","null","<span style='color:GreenYellow; font-size: 70px;'>正确! </span>","null","","","","","","","","","","","","","","","","","","","","","","","","","feedback_test","",""
"","","","","","psychophysics","184","504203","0.0-9.0-0.0-0.0-0.0-0.37","756","","arrowleft","","","","","","","","","","","","","key","arrowleft","16.66908571428586","581.8181692076126","359.9999921972103","arrowleft","true","../../test_img/19.png","自我","matching_task","朋友","[""<img src=\""../../test_img/12.png\"" width=150 style=\""vertical-align:middle\"">---生人"",""<img src=\""../../test_img/25.png\"" width=150 style=\""vertical-align:middle\"">---自我"",""<img src=\""../../test_img/19.png\"" width=150 style=\""vertical-align:middle\"">---朋友""]","","",""
"","","","","","html-keyboard-response","185","504713","0.0-9.0-0.0-0.0-0.0-1.37","null","<span style='color:GreenYellow; font-size: 70px;'>正确! </span>","null","","","","","","","","","","","","","","","","","","","","","","","","","feedback_test","",""
"","","","","","psychophysics","186","506621","0.0-9.0-0.0-0.0-0.0-0.38","891","","arrowleft","","","","","","","","","","","","","key","arrowleft","16.66861946902658","581.8181692076126","359.9999921972103","arrowleft","true","../../test_img/19.png","生人","matching_task","朋友","[""<img src=\""../../test_img/12.png\"" width=150 style=\""vertical-align:middle\"">---生人"",""<img src=\""../../test_img/25.png\"" width=150 style=\""vertical-align:middle\"">---自我"",""<img src=\""../../test_img/19.png\"" width=150 style=\""vertical-align:middle\"">---朋友""]","","",""
"","","","","","html-keyboard-response","187","507124","0.0-9.0-0.0-0.0-0.0-1.38","null","<span style='color:GreenYellow; font-size: 70px;'>正确! </span>","null","","","","","","","","","","","","","","","","","","","","","","","","","feedback_test","",""
"","","","","","psychophysics","188","508836","0.0-9.0-0.0-0.0-0.0-0.39","704","","arrowright","","","","","","","","","","","","","key","arrowright","16.66885148514855","581.8181692076126","359.9999921972103","arrowright","true","../../test_img/12.png","生人","matching_task","生人","[""<img src=\""../../test_img/12.png\"" width=150 style=\""vertical-align:middle\"">---生人"",""<img src=\""../../test_img/25.png\"" width=150 style=\""vertical-align:middle\"">---自我"",""<img src=\""../../test_img/19.png\"" width=150 style=\""vertical-align:middle\"">---朋友""]","","",""
"","","","","","html-keyboard-response","189","509351","0.0-9.0-0.0-0.0-0.0-1.39","null","<span style='color:GreenYellow; font-size: 70px;'>正确! </span>","null","","","","","","","","","","","","","","","","","","","","","","","","","feedback_test","",""
"","","","","","psychophysics","190","511224","0.0-9.0-0.0-0.0-0.0-0.40","859","","arrowright","","","","","","","","","","","","","key","arrowright","16.668954954955094","581.8181692076126","359.9999921972103","arrowright","true","../../test_img/25.png","自我","matching_task","自我","[""<img src=\""../../test_img/12.png\"" width=150 style=\""vertical-align:middle\"">---生人"",""<img src=\""../../test_img/25.png\"" width=150 style=\""vertical-align:middle\"">---自我"",""<img src=\""../../test_img/19.png\"" width=150 style=\""vertical-align:middle\"">---朋友""]","","",""
"","","","","","html-keyboard-response","191","511729","0.0-9.0-0.0-0.0-0.0-1.40","null","<span style='color:GreenYellow; font-size: 70px;'>正确! </span>","null","","","","","","","","","","","","","","","","","","","","","","","","","feedback_test","",""
"","","","","","psychophysics","192","513574","0.0-9.0-0.0-0.0-0.0-0.41","825","","arrowleft","","","","","","","","","","","","","key","arrowleft","16.6720550458717","581.8181692076126","359.9999921972103","arrowleft","true","../../test_img/12.png","朋友","matching_task","生人","[""<img src=\""../../test_img/12.png\"" width=150 style=\""vertical-align:middle\"">---生人"",""<img src=\""../../test_img/25.png\"" width=150 style=\""vertical-align:middle\"">---自我"",""<img src=\""../../test_img/19.png\"" width=150 style=\""vertical-align:middle\"">---朋友""]","","",""
"","","","","","html-keyboard-response","193","514078","0.0-9.0-0.0-0.0-0.0-1.41","null","<span style='color:GreenYellow; font-size: 70px;'>正确! </span>","null","","","","","","","","","","","","","","","","","","","","","","","","","feedback_test","",""
"","","","","","psychophysics","194","516055","0.0-9.0-0.0-0.0-0.0-0.42","958","","arrowleft","","","","","","","","","","","","","key","arrowleft","16.66810344827586","581.8181692076126","359.9999921972103","arrowleft","true","../../test_img/12.png","自我","matching_task","生人","[""<img src=\""../../test_img/12.png\"" width=150 style=\""vertical-align:middle\"">---生人"",""<img src=\""../../test_img/25.png\"" width=150 style=\""vertical-align:middle\"">---自我"",""<img src=\""../../test_img/19.png\"" width=150 style=\""vertical-align:middle\"">---朋友""]","","",""
"","","","","","html-keyboard-response","195","516569","0.0-9.0-0.0-0.0-0.0-1.42","null","<span style='color:GreenYellow; font-size: 70px;'>正确! </span>","null","","","","","","","","","","","","","","","","","","","","","","","","","feedback_test","",""
"","","","","","psychophysics","196","518486","0.0-9.0-0.0-0.0-0.0-0.43","907","","arrowright","","","","","","","","","","","","","key","arrowright","16.667140350877226","581.8181692076126","359.9999921972103","arrowleft","false","../../test_img/25.png","朋友","matching_task","自我","[""<img src=\""../../test_img/12.png\"" width=150 style=\""vertical-align:middle\"">---生人"",""<img src=\""../../test_img/25.png\"" width=150 style=\""vertical-align:middle\"">---自我"",""<img src=\""../../test_img/19.png\"" width=150 style=\""vertical-align:middle\"">---朋友""]","","",""
"","","","","","html-keyboard-response","197","518991","0.0-9.0-0.0-0.0-0.0-1.43","null","<span style='color:red; font-size: 70px;'>错误! </span>","null","","","","","","","","","","","","","","","","","","","","","","","","","feedback_test","",""
"","","","","","psychophysics","198","521354","0.0-9.0-0.0-0.0-0.0-0.44","1356","","arrowleft","","","","","","","","","","","","","key","arrowleft","16.66751773049642","581.8181692076126","359.9999921972103","arrowleft","true","../../test_img/25.png","生人","matching_task","自我","[""<img src=\""../../test_img/12.png\"" width=150 style=\""vertical-align:middle\"">---生人"",""<img src=\""../../test_img/25.png\"" width=150 style=\""vertical-align:middle\"">---自我"",""<img src=\""../../test_img/19.png\"" width=150 style=\""vertical-align:middle\"">---朋友""]","","",""
"","","","","","html-keyboard-response","199","521866","0.0-9.0-0.0-0.0-0.0-1.44","null","<span style='color:GreenYellow; font-size: 70px;'>正确! </span>","null","","","","","","","","","","","","","","","","","","","","","","","","","feedback_test","",""
"","","","","","psychophysics","200","524048","0.0-9.0-0.0-0.0-0.0-0.45","1167","","arrowright","","","","","","","","","","","","","key","arrowright","16.668635658914397","581.8181692076126","359.9999921972103","arrowright","true","../../test_img/19.png","朋友","matching_task","朋友","[""<img src=\""../../test_img/12.png\"" width=150 style=\""vertical-align:middle\"">---生人"",""<img src=\""../../test_img/25.png\"" width=150 style=\""vertical-align:middle\"">---自我"",""<img src=\""../../test_img/19.png\"" width=150 style=\""vertical-align:middle\"">---朋友""]","","",""
"","","","","","html-keyboard-response","201","524561","0.0-9.0-0.0-0.0-0.0-1.45","null","<span style='color:GreenYellow; font-size: 70px;'>正确! </span>","null","","","","","","","","","","","","","","","","","","","","","","","","","feedback_test","",""
"","","","","","psychophysics","202","526576","0.0-9.0-0.0-0.0-0.0-0.46","1008","","arrowleft","","","","","","","","","","","","","key","arrowleft","16.660504201680478","581.8181692076126","359.9999921972103","arrowright","false","../../test_img/25.png","自我","matching_task","自我","[""<img src=\""../../test_img/12.png\"" width=150 style=\""vertical-align:middle\"">---生人"",""<img src=\""../../test_img/25.png\"" width=150 style=\""vertical-align:middle\"">---自我"",""<img src=\""../../test_img/19.png\"" width=150 style=\""vertical-align:middle\"">---朋友""]","","",""
"","","","","","html-keyboard-response","203","527082","0.0-9.0-0.0-0.0-0.0-1.46","null","<span style='color:red; font-size: 70px;'>错误! </span>","null","","","","","","","","","","","","","","","","","","","","","","","","","feedback_test","",""
"","","","","","psychophysics","204","528824","0.0-9.0-0.0-0.0-0.0-0.47","726","","arrowright","","","","","","","","","","","","","key","arrowright","16.671398058252237","581.8181692076126","359.9999921972103","arrowright","true","../../test_img/12.png","生人","matching_task","生人","[""<img src=\""../../test_img/12.png\"" width=150 style=\""vertical-align:middle\"">---生人"",""<img src=\""../../test_img/25.png\"" width=150 style=\""vertical-align:middle\"">---自我"",""<img src=\""../../test_img/19.png\"" width=150 style=\""vertical-align:middle\"">---朋友""]","","",""
"","","","","","html-keyboard-response","205","529339","0.0-9.0-0.0-0.0-0.0-1.47","null","<span style='color:GreenYellow; font-size: 70px;'>正确! </span>","null","","","","","","","","","","","","","","","","","","","","","","","","","feedback_test","",""
"","","","","","psychophysics","206","531380","0.0-9.0-0.0-0.0-0.0-0.48","1031","","arrowright","","","","","","","","","","","","","key","arrowright","16.672400000000682","581.8181692076126","359.9999921972103","arrowright","true","../../test_img/19.png","朋友","matching_task","朋友","[""<img src=\""../../test_img/12.png\"" width=150 style=\""vertical-align:middle\"">---生人"",""<img src=\""../../test_img/25.png\"" width=150 style=\""vertical-align:middle\"">---自我"",""<img src=\""../../test_img/19.png\"" width=150 style=\""vertical-align:middle\"">---朋友""]","","",""
"","","","","","html-keyboard-response","207","531882","0.0-9.0-0.0-0.0-0.0-1.48","null","<span style='color:GreenYellow; font-size: 70px;'>正确! </span>","null","","","","","","","","","","","","","","","","","","","","","","","","","feedback_test","",""
"","","","","","psychophysics","208","533658","0.0-9.0-0.0-0.0-0.0-0.49","759","","arrowright","","","","","","","","","","","","","key","arrowright","16.67194285714289","581.8181692076126","359.9999921972103","arrowright","true","../../test_img/12.png","生人","matching_task","生人","[""<img src=\""../../test_img/12.png\"" width=150 style=\""vertical-align:middle\"">---生人"",""<img src=\""../../test_img/25.png\"" width=150 style=\""vertical-align:middle\"">---自我"",""<img src=\""../../test_img/19.png\"" width=150 style=\""vertical-align:middle\"">---朋友""]","","",""
"","","","","","html-keyboard-response","209","534174","0.0-9.0-0.0-0.0-0.0-1.49","null","<span style='color:GreenYellow; font-size: 70px;'>正确! </span>","null","","","","","","","","","","","","","","","","","","","","","","","","","feedback_test","",""
"","","","","","psychophysics","210","536475","0.0-9.0-0.0-0.0-0.0-0.50","1293","","arrowleft","","","","","","","","","","","","","key","arrowleft","16.669764705882272","581.8181692076126","359.9999921972103","arrowleft","true","../../test_img/25.png","生人","matching_task","自我","[""<img src=\""../../test_img/12.png\"" width=150 style=\""vertical-align:middle\"">---生人"",""<img src=\""../../test_img/25.png\"" width=150 style=\""vertical-align:middle\"">---自我"",""<img src=\""../../test_img/19.png\"" width=150 style=\""vertical-align:middle\"">---朋友""]","","",""
"","","","","","html-keyboard-response","211","536983","0.0-9.0-0.0-0.0-0.0-1.50","null","<span style='color:GreenYellow; font-size: 70px;'>正确! </span>","null","","","","","","","","","","","","","","","","","","","","","","","","","feedback_test","",""
"","","","","","psychophysics","212","538875","0.0-9.0-0.0-0.0-0.0-0.51","875","","arrowleft","","","","","","","","","","","","","key","arrowleft","16.670125000000034","581.8181692076126","359.9999921972103","arrowleft","true","../../test_img/19.png","生人","matching_task","朋友","[""<img src=\""../../test_img/12.png\"" width=150 style=\""vertical-align:middle\"">---生人"",""<img src=\""../../test_img/25.png\"" width=150 style=\""vertical-align:middle\"">---自我"",""<img src=\""../../test_img/19.png\"" width=150 style=\""vertical-align:middle\"">---朋友""]","","",""
"","","","","","html-keyboard-response","213","539391","0.0-9.0-0.0-0.0-0.0-1.51","null","<span style='color:GreenYellow; font-size: 70px;'>正确! </span>","null","","","","","","","","","","","","","","","","","","","","","","","","","feedback_test","",""
"","","","","","psychophysics","214","541360","0.0-9.0-0.0-0.0-0.0-0.52","960","","arrowleft","","","","","","","","","","","","","key","arrowleft","16.669724137930736","581.8181692076126","359.9999921972103","arrowleft","true","../../test_img/25.png","朋友","matching_task","自我","[""<img src=\""../../test_img/12.png\"" width=150 style=\""vertical-align:middle\"">---生人"",""<img src=\""../../test_img/25.png\"" width=150 style=\""vertical-align:middle\"">---自我"",""<img src=\""../../test_img/19.png\"" width=150 style=\""vertical-align:middle\"">---朋友""]","","",""
"","","","","","html-keyboard-response","215","541871","0.0-9.0-0.0-0.0-0.0-1.52","null","<span style='color:GreenYellow; font-size: 70px;'>正确! </span>","null","","","","","","","","","","","","","","","","","","","","","","","","","feedback_test","",""
"","","","","","psychophysics","216","543865","0.0-9.0-0.0-0.0-0.0-0.53","987","","arrowright","","","","","","","","","","","","","key","arrowright","16.67033898305065","581.8181692076126","359.9999921972103","arrowleft","false","../../test_img/19.png","自我","matching_task","朋友","[""<img src=\""../../test_img/12.png\"" width=150 style=\""vertical-align:middle\"">---生人"",""<img src=\""../../test_img/25.png\"" width=150 style=\""vertical-align:middle\"">---自我"",""<img src=\""../../test_img/19.png\"" width=150 style=\""vertical-align:middle\"">---朋友""]","","",""
"","","","","","html-keyboard-response","217","544368","0.0-9.0-0.0-0.0-0.0-1.53","null","<span style='color:red; font-size: 70px;'>错误! </span>","null","","","","","","","","","","","","","","","","","","","","","","","","","feedback_test","",""
"","","","","","psychophysics","218","546209","0.0-9.0-0.0-0.0-0.0-0.54","826","","arrowleft","","","","","","","","","","","","","key","arrowleft","16.669908256880905","581.8181692076126","359.9999921972103","arrowleft","true","../../test_img/12.png","朋友","matching_task","生人","[""<img src=\""../../test_img/12.png\"" width=150 style=\""vertical-align:middle\"">---生人"",""<img src=\""../../test_img/25.png\"" width=150 style=\""vertical-align:middle\"">---自我"",""<img src=\""../../test_img/19.png\"" width=150 style=\""vertical-align:middle\"">---朋友""]","","",""
"","","","","","html-keyboard-response","219","546716","0.0-9.0-0.0-0.0-0.0-1.54","null","<span style='color:GreenYellow; font-size: 70px;'>正确! </span>","null","","","","","","","","","","","","","","","","","","","","","","","","","feedback_test","",""
"","","","","","psychophysics","220","549059","0.0-9.0-0.0-0.0-0.0-0.55","1325","","arrowleft","","","","","","","","","","","","","key","arrowleft","16.667294964028468","581.8181692076126","359.9999921972103","arrowright","false","../../test_img/25.png","自我","matching_task","自我","[""<img src=\""../../test_img/12.png\"" width=150 style=\""vertical-align:middle\"">---生人"",""<img src=\""../../test_img/25.png\"" width=150 style=\""vertical-align:middle\"">---自我"",""<img src=\""../../test_img/19.png\"" width=150 style=\""vertical-align:middle\"">---朋友""]","","",""
"","","","","","html-keyboard-response","221","549568","0.0-9.0-0.0-0.0-0.0-1.55","null","<span style='color:red; font-size: 70px;'>错误! </span>","null","","","","","","","","","","","","","","","","","","","","","","","","","feedback_test","",""
"","","","","","psychophysics","222","551422","0.0-9.0-0.0-0.0-0.0-0.56","838","","arrowleft","","","","","","","","","","","","","key","arrowleft","16.665945454546122","581.8181692076126","359.9999921972103","arrowleft","true","../../test_img/12.png","自我","matching_task","生人","[""<img src=\""../../test_img/12.png\"" width=150 style=\""vertical-align:middle\"">---生人"",""<img src=\""../../test_img/25.png\"" width=150 style=\""vertical-align:middle\"">---自我"",""<img src=\""../../test_img/19.png\"" width=150 style=\""vertical-align:middle\"">---朋友""]","","",""
"","","","","","html-keyboard-response","223","551934","0.0-9.0-0.0-0.0-0.0-1.56","null","<span style='color:GreenYellow; font-size: 70px;'>正确! </span>","null","","","","","","","","","","","","","","","","","","","","","","","","","feedback_test","",""
"","","","","","psychophysics","224","554326","0.0-9.0-0.0-0.0-0.0-0.57","1375","","arrowleft","","","","","","","","","","","","","key","arrowleft","16.67009859154916","581.8181692076126","359.9999921972103","arrowright","false","../../test_img/12.png","生人","matching_task","生人","[""<img src=\""../../test_img/12.png\"" width=150 style=\""vertical-align:middle\"">---生人"",""<img src=\""../../test_img/25.png\"" width=150 style=\""vertical-align:middle\"">---自我"",""<img src=\""../../test_img/19.png\"" width=150 style=\""vertical-align:middle\"">---朋友""]","","",""
"","","","","","html-keyboard-response","225","554830","0.0-9.0-0.0-0.0-0.0-1.57","null","<span style='color:red; font-size: 70px;'>错误! </span>","null","","","","","","","","","","","","","","","","","","","","","","","","","feedback_test","",""
"","","","","","psychophysics","226","556772","0.0-9.0-0.0-0.0-0.0-0.58","936","","arrowright","","","","","","","","","","","","","key","arrowright","16.670434782608492","581.8181692076126","359.9999921972103","arrowright","true","../../test_img/25.png","自我","matching_task","自我","[""<img src=\""../../test_img/12.png\"" width=150 style=\""vertical-align:middle\"">---生人"",""<img src=\""../../test_img/25.png\"" width=150 style=\""vertical-align:middle\"">---自我"",""<img src=\""../../test_img/19.png\"" width=150 style=\""vertical-align:middle\"">---朋友""]","","",""
"","","","","","html-keyboard-response","227","557283","0.0-9.0-0.0-0.0-0.0-1.58","null","<span style='color:GreenYellow; font-size: 70px;'>正确! </span>","null","","","","","","","","","","","","","","","","","","","","","","","","","feedback_test","",""
"","","","","","psychophysics","228","559577","0.0-9.0-0.0-0.0-0.0-0.59","1287","","arrowleft","","","","","","","","","","","","","key","arrowleft","16.668779411764906","581.8181692076126","359.9999921972103","arrowright","false","../../test_img/19.png","朋友","matching_task","朋友","[""<img src=\""../../test_img/12.png\"" width=150 style=\""vertical-align:middle\"">---生人"",""<img src=\""../../test_img/25.png\"" width=150 style=\""vertical-align:middle\"">---自我"",""<img src=\""../../test_img/19.png\"" width=150 style=\""vertical-align:middle\"">---朋友""]","","",""
"","","","","","html-keyboard-response","229","560089","0.0-9.0-0.0-0.0-0.0-1.59","null","<span style='color:red; font-size: 70px;'>错误! </span>","null","","","","","","","","","","","","","","","","","","","","","","","","","feedback_test","",""
"","","","","","psychophysics","230","561885","0.0-9.0-0.0-0.0-0.0-0.60","781","","arrowright","","","","","","","","","","","","","key","arrowright","16.667490566037333","581.8181692076126","359.9999921972103","arrowright","true","../../test_img/12.png","生人","matching_task","生人","[""<img src=\""../../test_img/12.png\"" width=150 style=\""vertical-align:middle\"">---生人"",""<img src=\""../../test_img/25.png\"" width=150 style=\""vertical-align:middle\"">---自我"",""<img src=\""../../test_img/19.png\"" width=150 style=\""vertical-align:middle\"">---朋友""]","","",""
"","","","","","html-keyboard-response","231","562395","0.0-9.0-0.0-0.0-0.0-1.60","null","<span style='color:GreenYellow; font-size: 70px;'>正确! </span>","null","","","","","","","","","","","","","","","","","","","","","","","","","feedback_test","",""
"","","","","","psychophysics","232","564364","0.0-9.0-0.0-0.0-0.0-0.61","962","","arrowleft","","","","","","","","","","","","","key","arrowleft","16.669431034483594","581.8181692076126","359.9999921972103","arrowleft","true","../../test_img/12.png","朋友","matching_task","生人","[""<img src=\""../../test_img/12.png\"" width=150 style=\""vertical-align:middle\"">---生人"",""<img src=\""../../test_img/25.png\"" width=150 style=\""vertical-align:middle\"">---自我"",""<img src=\""../../test_img/19.png\"" width=150 style=\""vertical-align:middle\"">---朋友""]","","",""
"","","","","","html-keyboard-response","233","564865","0.0-9.0-0.0-0.0-0.0-1.61","null","<span style='color:GreenYellow; font-size: 70px;'>正确! </span>","null","","","","","","","","","","","","","","","","","","","","","","","","","feedback_test","",""
"","","","","","psychophysics","234","566778","0.0-9.0-0.0-0.0-0.0-0.62","906","","arrowright","","","","","","","","","","","","","key","arrowright","16.640707964601976","581.8181692076126","359.9999921972103","arrowright","true","../../test_img/25.png","自我","matching_task","自我","[""<img src=\""../../test_img/12.png\"" width=150 style=\""vertical-align:middle\"">---生人"",""<img src=\""../../test_img/25.png\"" width=150 style=\""vertical-align:middle\"">---自我"",""<img src=\""../../test_img/19.png\"" width=150 style=\""vertical-align:middle\"">---朋友""]","","",""
"","","","","","html-keyboard-response","235","567285","0.0-9.0-0.0-0.0-0.0-1.62","null","<span style='color:GreenYellow; font-size: 70px;'>正确! </span>","null","","","","","","","","","","","","","","","","","","","","","","","","","feedback_test","",""
"","","","","","psychophysics","236","569400","0.0-9.0-0.0-0.0-0.0-0.63","1098","","arrowright","","","","","","","","","","","","","key","arrowright","16.67243200000003","581.8181692076126","359.9999921972103","arrowright","true","../../test_img/19.png","朋友","matching_task","朋友","[""<img src=\""../../test_img/12.png\"" width=150 style=\""vertical-align:middle\"">---生人"",""<img src=\""../../test_img/25.png\"" width=150 style=\""vertical-align:middle\"">---自我"",""<img src=\""../../test_img/19.png\"" width=150 style=\""vertical-align:middle\"">---朋友""]","","",""
"","","","","","html-keyboard-response","237","569905","0.0-9.0-0.0-0.0-0.0-1.63","null","<span style='color:GreenYellow; font-size: 70px;'>正确! </span>","null","","","","","","","","","","","","","","","","","","","","","","","","","feedback_test","",""
"","","","","","psychophysics","238","571599","0.0-9.0-0.0-0.0-0.0-0.64","679","","arrowright","","","","","","","","","","","","","key","arrowright","16.668200000000652","581.8181692076126","359.9999921972103","arrowright","true","../../test_img/19.png","朋友","matching_task","朋友","[""<img src=\""../../test_img/12.png\"" width=150 style=\""vertical-align:middle\"">---生人"",""<img src=\""../../test_img/25.png\"" width=150 style=\""vertical-align:middle\"">---自我"",""<img src=\""../../test_img/19.png\"" width=150 style=\""vertical-align:middle\"">---朋友""]","","",""
"","","","","","html-keyboard-response","239","572108","0.0-9.0-0.0-0.0-0.0-1.64","null","<span style='color:GreenYellow; font-size: 70px;'>正确! </span>","null","","","","","","","","","","","","","","","","","","","","","","","","","feedback_test","",""
"","","","","","psychophysics","240","573729","0.0-9.0-0.0-0.0-0.0-0.65","609","","arrowleft","","","","","","","","","","","","","key","arrowleft","16.672631578947612","581.8181692076126","359.9999921972103","arrowleft","true","../../test_img/19.png","自我","matching_task","朋友","[""<img src=\""../../test_img/12.png\"" width=150 style=\""vertical-align:middle\"">---生人"",""<img src=\""../../test_img/25.png\"" width=150 style=\""vertical-align:middle\"">---自我"",""<img src=\""../../test_img/19.png\"" width=150 style=\""vertical-align:middle\"">---朋友""]","","",""
"","","","","","html-keyboard-response","241","574246","0.0-9.0-0.0-0.0-0.0-1.65","null","<span style='color:GreenYellow; font-size: 70px;'>正确! </span>","null","","","","","","","","","","","","","","","","","","","","","","","","","feedback_test","",""
"","","","","","psychophysics","242","575996","0.0-9.0-0.0-0.0-0.0-0.66","744","","arrowright","","","","","","","","","","","","","key","arrowright","16.671844660193724","581.8181692076126","359.9999921972103","arrowright","true","../../test_img/25.png","自我","matching_task","自我","[""<img src=\""../../test_img/12.png\"" width=150 style=\""vertical-align:middle\"">---生人"",""<img src=\""../../test_img/25.png\"" width=150 style=\""vertical-align:middle\"">---自我"",""<img src=\""../../test_img/19.png\"" width=150 style=\""vertical-align:middle\"">---朋友""]","","",""
"","","","","","html-keyboard-response","243","576503","0.0-9.0-0.0-0.0-0.0-1.66","null","<span style='color:GreenYellow; font-size: 70px;'>正确! </span>","null","","","","","","","","","","","","","","","","","","","","","","","","","feedback_test","",""
"","","","","","psychophysics","244","578444","0.0-9.0-0.0-0.0-0.0-0.67","922","","arrowleft","","","","","","","","","","","","","key","arrowleft","16.668295652173338","581.8181692076126","359.9999921972103","arrowleft","true","../../test_img/25.png","生人","matching_task","自我","[""<img src=\""../../test_img/12.png\"" width=150 style=\""vertical-align:middle\"">---生人"",""<img src=\""../../test_img/25.png\"" width=150 style=\""vertical-align:middle\"">---自我"",""<img src=\""../../test_img/19.png\"" width=150 style=\""vertical-align:middle\"">---朋友""]","","",""
"","","","","","html-keyboard-response","245","578958","0.0-9.0-0.0-0.0-0.0-1.67","null","<span style='color:GreenYellow; font-size: 70px;'>正确! </span>","null","","","","","","","","","","","","","","","","","","","","","","","","","feedback_test","",""
"","","","","","psychophysics","246","580945","0.0-9.0-0.0-0.0-0.0-0.68","974","","arrowright","","","","","","","","","","","","","key","arrowright","16.669101694914495","581.8181692076126","359.9999921972103","arrowleft","false","../../test_img/25.png","朋友","matching_task","自我","[""<img src=\""../../test_img/12.png\"" width=150 style=\""vertical-align:middle\"">---生人"",""<img src=\""../../test_img/25.png\"" width=150 style=\""vertical-align:middle\"">---自我"",""<img src=\""../../test_img/19.png\"" width=150 style=\""vertical-align:middle\"">---朋友""]","","",""
"","","","","","html-keyboard-response","247","581450","0.0-9.0-0.0-0.0-0.0-1.68","null","<span style='color:red; font-size: 70px;'>错误! </span>","null","","","","","","","","","","","","","","","","","","","","","","","","","feedback_test","",""
"","","","","","psychophysics","248","583444","0.0-9.0-0.0-0.0-0.0-0.69","973","","arrowleft","","","","","","","","","","","","","key","arrowleft","16.65762711864387","581.8181692076126","359.9999921972103","arrowleft","true","../../test_img/19.png","生人","matching_task","朋友","[""<img src=\""../../test_img/12.png\"" width=150 style=\""vertical-align:middle\"">---生人"",""<img src=\""../../test_img/25.png\"" width=150 style=\""vertical-align:middle\"">---自我"",""<img src=\""../../test_img/19.png\"" width=150 style=\""vertical-align:middle\"">---朋友""]","","",""
