"success","timeout","failed_images","failed_audio","failed_video","trial_type","trial_index","time_elapsed","internal_node_id","rt","stimulus","response","value","item_width_mm","item_height_mm","item_width_px","px2mm","view_dist_mm","item_width_deg","px2deg","scale_factor","win_width_deg","win_height_deg","view_history","response_type","key_press","avg_frame_time","center_x","center_y","correct_response","correct","Image","word","condition","shape","association","screen_id","LeftLable","RightLable"
"true","false","[]","[]","[]","preload","0","9663","0.0-0.0","","","","","","","","","","","","","","","","","","","","","","","","","","","","","",""
"","","","","","html-keyboard-response","1","36711","0.0-1.0","27048","
     <p>您好，欢迎参加本次实验。</p>
     <p>为充分保障您的权利，请确保您已经知晓并同意《参与实验同意书》以及《数据公开知情同意书》。</p>
     <p>如果您未见过上述内容，请咨询实验员。</p>
     <p>如果您选择继续实验，则表示您已经清楚两份知情同意书的内容并同意。</p>
     <p> <div style = ""color: green""><按任意键至下页></div> </p>
     "," ","","","","","","","","","","","","","","","","","","","","","","","","","","",""
"","","","","","html-keyboard-response","2","38684","0.0-2.0","1973","
     <p>本实验首先需要您填写一些基本个人信息。</p>
     <p> <div style = ""color: green""><按任意键至下页></div></p>
     "," ","","","","","","","","","","","","","","","","","","","","","","","","","","",""
"","","","","","call-function","3","38685","0.0-3.0-0.0","","","","","","","","","","","","","","","","","","","","","","","","","","","","","",""
"","","","","","survey-html-form","4","42139","0.0-3.0-1.0","3451","","{""Q0"":""21""}","","","","","","","","","","","","","","","","","","","","","","","","","","",""
"","","","","","html-button-response","5","43555","0.0-3.0-2.0","1415","<p style = 'color : white'>您的性别</p>","1","","","","","","","","","","","","","","","","","","","","","","","","","","",""
"","","","","","survey-html-form","6","47669","0.0-3.0-3.0","4113","","{""Q0"":""1997""}","","","","","","","","","","","","","","","","","","","","","","","","","","",""
"","","","","","survey-html-form","7","50531","0.0-3.0-4.0","2861","","{""Q0"":""7""}","","","","","","","","","","","","","","","","","","","","","","","","","","",""
"","","","","","virtual-chinrest","8","190996","0.0-4.0","140465","","","","85.6","53.98","597.9516376305546","6.981011729972485","408.62","11.959032752611092","50","0.678984677772298","27.72","16.74","","","","","","","","","","","","","","","",""
"true","","","","","fullscreen","9","200678","0.0-5.0","","","","","","","","","","","","","","","","","","","","","","","","","","","","","",""
"","","","","","instructions","10","258708","0.0-6.0","58030","","","","","","","","","","","","","","[{""page_index"":0,""viewing_time"":14609},{""page_index"":1,""viewing_time"":10822},{""page_index"":2,""viewing_time"":19118},{""page_index"":3,""viewing_time"":5952},{""page_index"":4,""viewing_time"":7528}]","","","","","","","","","","","","","","",""
"","","","","","psychophysics","11","261218","0.0-7.0-0.0-0.0","null","","null","","","","","","","","","","","","","key","null","16.666442953020056","720.2857142857143","476.2857142857143","arrowright","false","../../test_img/26.png","朋友","prac_matching_task","朋友","[""<img src=\""../../test_img/15.png\"" width=150 style=\""vertical-align:middle\"">---生人"",""<img src=\""../../test_img/22.png\"" width=150 style=\""vertical-align:middle\"">---自我"",""<img src=\""../../test_img/26.png\"" width=150 style=\""vertical-align:middle\"">---朋友""]","","",""
"","","","","","html-keyboard-response","12","261531","0.0-7.0-0.0-1.0","null","<span class='add_' style='color:yellow; font-size: 70px;'> 太慢! </span>","null","","","","","","","","","","","","","","","","","","","","","","","","","feedback_test","",""
"","","","","","psychophysics","13","264038","0.0-7.0-0.0-0.1","null","","null","","","","","","","","","","","","","key","null","16.66621621621606","720.2857142857143","476.2857142857143","arrowright","false","../../test_img/22.png","自我","prac_matching_task","自我","[""<img src=\""../../test_img/15.png\"" width=150 style=\""vertical-align:middle\"">---生人"",""<img src=\""../../test_img/22.png\"" width=150 style=\""vertical-align:middle\"">---自我"",""<img src=\""../../test_img/26.png\"" width=150 style=\""vertical-align:middle\"">---朋友""]","","",""
"","","","","","html-keyboard-response","14","264353","0.0-7.0-0.0-1.1","null","<span class='add_' style='color:yellow; font-size: 70px;'> 太慢! </span>","null","","","","","","","","","","","","","","","","","","","","","","","","","feedback_test","",""
"","","","","","psychophysics","15","266865","0.0-7.0-0.0-0.2","null","","null","","","","","","","","","","","","","key","null","16.666442953020447","720.2857142857143","476.2857142857143","arrowleft","false","../../test_img/22.png","生人","prac_matching_task","自我","[""<img src=\""../../test_img/15.png\"" width=150 style=\""vertical-align:middle\"">---生人"",""<img src=\""../../test_img/22.png\"" width=150 style=\""vertical-align:middle\"">---自我"",""<img src=\""../../test_img/26.png\"" width=150 style=\""vertical-align:middle\"">---朋友""]","","",""
"","","","","","html-keyboard-response","16","267178","0.0-7.0-0.0-1.2","null","<span class='add_' style='color:yellow; font-size: 70px;'> 太慢! </span>","null","","","","","","","","","","","","","","","","","","","","","","","","","feedback_test","",""
"","","","","","psychophysics","17","269689","0.0-7.0-0.0-0.3","null","","null","","","","","","","","","","","","","key","null","16.666442953020056","720.2857142857143","476.2857142857143","arrowright","false","../../test_img/26.png","朋友","prac_matching_task","朋友","[""<img src=\""../../test_img/15.png\"" width=150 style=\""vertical-align:middle\"">---生人"",""<img src=\""../../test_img/22.png\"" width=150 style=\""vertical-align:middle\"">---自我"",""<img src=\""../../test_img/26.png\"" width=150 style=\""vertical-align:middle\"">---朋友""]","","",""
"","","","","","html-keyboard-response","18","270000","0.0-7.0-0.0-1.3","null","<span class='add_' style='color:yellow; font-size: 70px;'> 太慢! </span>","null","","","","","","","","","","","","","","","","","","","","","","","","","feedback_test","",""
"","","","","","psychophysics","19","272504","0.0-7.0-0.0-0.4","null","","null","","","","","","","","","","","","","key","null","16.66621621621645","720.2857142857143","476.2857142857143","arrowleft","false","../../test_img/22.png","朋友","prac_matching_task","自我","[""<img src=\""../../test_img/15.png\"" width=150 style=\""vertical-align:middle\"">---生人"",""<img src=\""../../test_img/22.png\"" width=150 style=\""vertical-align:middle\"">---自我"",""<img src=\""../../test_img/26.png\"" width=150 style=\""vertical-align:middle\"">---朋友""]","","",""
"","","","","","html-keyboard-response","20","272818","0.0-7.0-0.0-1.4","null","<span class='add_' style='color:yellow; font-size: 70px;'> 太慢! </span>","null","","","","","","","","","","","","","","","","","","","","","","","","","feedback_test","",""
"","","","","","psychophysics","21","275335","0.0-7.0-0.0-0.5","null","","null","","","","","","","","","","","","","key","null","16.665413333333564","720.2857142857143","476.2857142857143","arrowright","false","../../test_img/22.png","自我","prac_matching_task","自我","[""<img src=\""../../test_img/15.png\"" width=150 style=\""vertical-align:middle\"">---生人"",""<img src=\""../../test_img/22.png\"" width=150 style=\""vertical-align:middle\"">---自我"",""<img src=\""../../test_img/26.png\"" width=150 style=\""vertical-align:middle\"">---朋友""]","","",""
"","","","","","html-keyboard-response","22","275646","0.0-7.0-0.0-1.5","null","<span class='add_' style='color:yellow; font-size: 70px;'> 太慢! </span>","null","","","","","","","","","","","","","","","","","","","","","","","","","feedback_test","",""
"","","","","","psychophysics","23","278154","0.0-7.0-0.0-0.6","null","","null","","","","","","","","","","","","","key","null","16.666442953020056","720.2857142857143","476.2857142857143","arrowleft","false","../../test_img/26.png","自我","prac_matching_task","朋友","[""<img src=\""../../test_img/15.png\"" width=150 style=\""vertical-align:middle\"">---生人"",""<img src=\""../../test_img/22.png\"" width=150 style=\""vertical-align:middle\"">---自我"",""<img src=\""../../test_img/26.png\"" width=150 style=\""vertical-align:middle\"">---朋友""]","","",""
"","","","","","html-keyboard-response","24","278456","0.0-7.0-0.0-1.6","null","<span class='add_' style='color:yellow; font-size: 70px;'> 太慢! </span>","null","","","","","","","","","","","","","","","","","","","","","","","","","feedback_test","",""
"","","","","","psychophysics","25","280972","0.0-7.0-0.0-0.7","null","","null","","","","","","","","","","","","","key","null","16.66691275167782","720.2857142857143","476.2857142857143","arrowright","false","../../test_img/15.png","生人","prac_matching_task","生人","[""<img src=\""../../test_img/15.png\"" width=150 style=\""vertical-align:middle\"">---生人"",""<img src=\""../../test_img/22.png\"" width=150 style=\""vertical-align:middle\"">---自我"",""<img src=\""../../test_img/26.png\"" width=150 style=\""vertical-align:middle\"">---朋友""]","","",""
"","","","","","html-keyboard-response","26","281274","0.0-7.0-0.0-1.7","null","<span class='add_' style='color:yellow; font-size: 70px;'> 太慢! </span>","null","","","","","","","","","","","","","","","","","","","","","","","","","feedback_test","",""
"","","","","","psychophysics","27","283783","0.0-7.0-0.0-0.8","null","","null","","","","","","","","","","","","","key","null","16.666456375839093","720.2857142857143","476.2857142857143","arrowleft","false","../../test_img/15.png","朋友","prac_matching_task","生人","[""<img src=\""../../test_img/15.png\"" width=150 style=\""vertical-align:middle\"">---生人"",""<img src=\""../../test_img/22.png\"" width=150 style=\""vertical-align:middle\"">---自我"",""<img src=\""../../test_img/26.png\"" width=150 style=\""vertical-align:middle\"">---朋友""]","","",""
"","","","","","html-keyboard-response","28","284091","0.0-7.0-0.0-1.8","null","<span class='add_' style='color:yellow; font-size: 70px;'> 太慢! </span>","null","","","","","","","","","","","","","","","","","","","","","","","","","feedback_test","",""
"","","","","","psychophysics","29","286598","0.0-7.0-0.0-0.9","null","","null","","","","","","","","","","","","","key","null","16.66711409395989","720.2857142857143","476.2857142857143","arrowright","false","../../test_img/15.png","生人","prac_matching_task","生人","[""<img src=\""../../test_img/15.png\"" width=150 style=\""vertical-align:middle\"">---生人"",""<img src=\""../../test_img/22.png\"" width=150 style=\""vertical-align:middle\"">---自我"",""<img src=\""../../test_img/26.png\"" width=150 style=\""vertical-align:middle\"">---朋友""]","","",""
"","","","","","html-keyboard-response","30","286910","0.0-7.0-0.0-1.9","null","<span class='add_' style='color:yellow; font-size: 70px;'> 太慢! </span>","null","","","","","","","","","","","","","","","","","","","","","","","","","feedback_test","",""
"","","","","","psychophysics","31","289418","0.0-7.0-0.0-0.10","null","","null","","","","","","","","","","","","","key","null","16.666442953020056","720.2857142857143","476.2857142857143","arrowleft","false","../../test_img/26.png","生人","prac_matching_task","朋友","[""<img src=\""../../test_img/15.png\"" width=150 style=\""vertical-align:middle\"">---生人"",""<img src=\""../../test_img/22.png\"" width=150 style=\""vertical-align:middle\"">---自我"",""<img src=\""../../test_img/26.png\"" width=150 style=\""vertical-align:middle\"">---朋友""]","","",""
"","","","","","html-keyboard-response","32","289734","0.0-7.0-0.0-1.10","null","<span class='add_' style='color:yellow; font-size: 70px;'> 太慢! </span>","null","","","","","","","","","","","","","","","","","","","","","","","","","feedback_test","",""
"","","","","","psychophysics","33","292244","0.0-7.0-0.0-0.11","null","","null","","","","","","","","","","","","","key","null","16.66778523489933","720.2857142857143","476.2857142857143","arrowleft","false","../../test_img/15.png","自我","prac_matching_task","生人","[""<img src=\""../../test_img/15.png\"" width=150 style=\""vertical-align:middle\"">---生人"",""<img src=\""../../test_img/22.png\"" width=150 style=\""vertical-align:middle\"">---自我"",""<img src=\""../../test_img/26.png\"" width=150 style=\""vertical-align:middle\"">---朋友""]","","",""
"","","","","","html-keyboard-response","34","292552","0.0-7.0-0.0-1.11","null","<span class='add_' style='color:yellow; font-size: 70px;'> 太慢! </span>","null","","","","","","","","","","","","","","","","","","","","","","","","","feedback_test","",""
"","","","","","psychophysics","35","295070","0.0-7.0-0.0-0.12","null","","null","","","","","","","","","","","","","key","null","16.667114093959498","720.2857142857143","476.2857142857143","arrowleft","false","../../test_img/22.png","朋友","prac_matching_task","自我","[""<img src=\""../../test_img/15.png\"" width=150 style=\""vertical-align:middle\"">---生人"",""<img src=\""../../test_img/22.png\"" width=150 style=\""vertical-align:middle\"">---自我"",""<img src=\""../../test_img/26.png\"" width=150 style=\""vertical-align:middle\"">---朋友""]","","",""
"","","","","","html-keyboard-response","36","295371","0.0-7.0-0.0-1.12","null","<span class='add_' style='color:yellow; font-size: 70px;'> 太慢! </span>","null","","","","","","","","","","","","","","","","","","","","","","","","","feedback_test","",""
"","","","","","psychophysics","37","297884","0.0-7.0-0.0-0.13","null","","null","","","","","","","","","","","","","key","null","16.665771812080614","720.2857142857143","476.2857142857143","arrowleft","false","../../test_img/22.png","生人","prac_matching_task","自我","[""<img src=\""../../test_img/15.png\"" width=150 style=\""vertical-align:middle\"">---生人"",""<img src=\""../../test_img/22.png\"" width=150 style=\""vertical-align:middle\"">---自我"",""<img src=\""../../test_img/26.png\"" width=150 style=\""vertical-align:middle\"">---朋友""]","","",""
"","","","","","html-keyboard-response","38","298194","0.0-7.0-0.0-1.13","null","<span class='add_' style='color:yellow; font-size: 70px;'> 太慢! </span>","null","","","","","","","","","","","","","","","","","","","","","","","","","feedback_test","",""
"","","","","","psychophysics","39","299542","0.0-7.0-0.0-0.14","337","","arrowleft","","","","","","","","","","","","","key","arrowleft","16.66875","720.2857142857143","476.2857142857143","arrowright","false","../../test_img/22.png","自我","prac_matching_task","自我","[""<img src=\""../../test_img/15.png\"" width=150 style=\""vertical-align:middle\"">---生人"",""<img src=\""../../test_img/22.png\"" width=150 style=\""vertical-align:middle\"">---自我"",""<img src=\""../../test_img/26.png\"" width=150 style=\""vertical-align:middle\"">---朋友""]","","",""
"","","","","","html-keyboard-response","40","299848","0.0-7.0-0.0-1.14","null","<span style='color:red; font-size: 70px;'>错误! </span>","null","","","","","","","","","","","","","","","","","","","","","","","","","feedback_test","",""
"","","","","","psychophysics","41","302356","0.0-7.0-0.0-0.15","null","","null","","","","","","","","","","","","","key","null","16.66689189189197","720.2857142857143","476.2857142857143","arrowleft","false","../../test_img/26.png","自我","prac_matching_task","朋友","[""<img src=\""../../test_img/15.png\"" width=150 style=\""vertical-align:middle\"">---生人"",""<img src=\""../../test_img/22.png\"" width=150 style=\""vertical-align:middle\"">---自我"",""<img src=\""../../test_img/26.png\"" width=150 style=\""vertical-align:middle\"">---朋友""]","","",""
"","","","","","html-keyboard-response","42","302656","0.0-7.0-0.0-1.15","null","<span class='add_' style='color:yellow; font-size: 70px;'> 太慢! </span>","null","","","","","","","","","","","","","","","","","","","","","","","","","feedback_test","",""
"","","","","","psychophysics","43","305172","0.0-7.0-0.0-0.16","null","","null","","","","","","","","","","","","","key","null","16.666442953020056","720.2857142857143","476.2857142857143","arrowleft","false","../../test_img/15.png","朋友","prac_matching_task","生人","[""<img src=\""../../test_img/15.png\"" width=150 style=\""vertical-align:middle\"">---生人"",""<img src=\""../../test_img/22.png\"" width=150 style=\""vertical-align:middle\"">---自我"",""<img src=\""../../test_img/26.png\"" width=150 style=\""vertical-align:middle\"">---朋友""]","","",""
"","","","","","html-keyboard-response","44","305487","0.0-7.0-0.0-1.16","null","<span class='add_' style='color:yellow; font-size: 70px;'> 太慢! </span>","null","","","","","","","","","","","","","","","","","","","","","","","","","feedback_test","",""
"","","","","","psychophysics","45","308005","0.0-7.0-0.0-0.17","null","","null","","","","","","","","","","","","","key","null","16.665100671141175","720.2857142857143","476.2857142857143","arrowleft","false","../../test_img/26.png","生人","prac_matching_task","朋友","[""<img src=\""../../test_img/15.png\"" width=150 style=\""vertical-align:middle\"">---生人"",""<img src=\""../../test_img/22.png\"" width=150 style=\""vertical-align:middle\"">---自我"",""<img src=\""../../test_img/26.png\"" width=150 style=\""vertical-align:middle\"">---朋友""]","","",""
"","","","","","html-keyboard-response","46","308320","0.0-7.0-0.0-1.17","null","<span class='add_' style='color:yellow; font-size: 70px;'> 太慢! </span>","null","","","","","","","","","","","","","","","","","","","","","","","","","feedback_test","",""
"","","","","","psychophysics","47","310834","0.0-7.0-0.0-0.18","null","","null","","","","","","","","","","","","","key","null","16.665771812080614","720.2857142857143","476.2857142857143","arrowright","false","../../test_img/15.png","生人","prac_matching_task","生人","[""<img src=\""../../test_img/15.png\"" width=150 style=\""vertical-align:middle\"">---生人"",""<img src=\""../../test_img/22.png\"" width=150 style=\""vertical-align:middle\"">---自我"",""<img src=\""../../test_img/26.png\"" width=150 style=\""vertical-align:middle\"">---朋友""]","","",""
"","","","","","html-keyboard-response","48","311144","0.0-7.0-0.0-1.18","null","<span class='add_' style='color:yellow; font-size: 70px;'> 太慢! </span>","null","","","","","","","","","","","","","","","","","","","","","","","","","feedback_test","",""
"","","","","","psychophysics","49","312804","0.0-7.0-0.0-0.19","652","","arrowright","","","","","","","","","","","","","key","arrowright","16.667346938775747","720.2857142857143","476.2857142857143","arrowright","true","../../test_img/26.png","朋友","prac_matching_task","朋友","[""<img src=\""../../test_img/15.png\"" width=150 style=\""vertical-align:middle\"">---生人"",""<img src=\""../../test_img/22.png\"" width=150 style=\""vertical-align:middle\"">---自我"",""<img src=\""../../test_img/26.png\"" width=150 style=\""vertical-align:middle\"">---朋友""]","","",""
"","","","","","html-keyboard-response","50","313105","0.0-7.0-0.0-1.19","null","<span style='color:GreenYellow; font-size: 70px;'>正确! </span>","null","","","","","","","","","","","","","","","","","","","","","","","","","feedback_test","",""
"","","","","","psychophysics","51","314826","0.0-7.0-0.0-0.20","720","","arrowleft","","","","","","","","","","","","","key","arrowleft","16.666666666666668","720.2857142857143","476.2857142857143","arrowright","false","../../test_img/22.png","自我","prac_matching_task","自我","[""<img src=\""../../test_img/15.png\"" width=150 style=\""vertical-align:middle\"">---生人"",""<img src=\""../../test_img/22.png\"" width=150 style=\""vertical-align:middle\"">---自我"",""<img src=\""../../test_img/26.png\"" width=150 style=\""vertical-align:middle\"">---朋友""]","","",""
"","","","","","html-keyboard-response","52","315139","0.0-7.0-0.0-1.20","null","<span style='color:red; font-size: 70px;'>错误! </span>","null","","","","","","","","","","","","","","","","","","","","","","","","","feedback_test","",""
"","","","","","psychophysics","53","317000","0.0-7.0-0.0-0.21","860","","arrowleft","","","","","","","","","","","","","key","arrowleft","16.667272727272408","720.2857142857143","476.2857142857143","arrowright","false","../../test_img/15.png","生人","prac_matching_task","生人","[""<img src=\""../../test_img/15.png\"" width=150 style=\""vertical-align:middle\"">---生人"",""<img src=\""../../test_img/22.png\"" width=150 style=\""vertical-align:middle\"">---自我"",""<img src=\""../../test_img/26.png\"" width=150 style=\""vertical-align:middle\"">---朋友""]","","",""
"","","","","","html-keyboard-response","54","317302","0.0-7.0-0.0-1.21","null","<span style='color:red; font-size: 70px;'>错误! </span>","null","","","","","","","","","","","","","","","","","","","","","","","","","feedback_test","",""
"","","","","","psychophysics","55","318978","0.0-7.0-0.0-0.22","675","","arrowright","","","","","","","","","","","","","key","arrowright","16.666666666666668","720.2857142857143","476.2857142857143","arrowright","true","../../test_img/26.png","朋友","prac_matching_task","朋友","[""<img src=\""../../test_img/15.png\"" width=150 style=\""vertical-align:middle\"">---生人"",""<img src=\""../../test_img/22.png\"" width=150 style=\""vertical-align:middle\"">---自我"",""<img src=\""../../test_img/26.png\"" width=150 style=\""vertical-align:middle\"">---朋友""]","","",""
"","","","","","html-keyboard-response","56","319285","0.0-7.0-0.0-1.22","null","<span style='color:GreenYellow; font-size: 70px;'>正确! </span>","null","","","","","","","","","","","","","","","","","","","","","","","","","feedback_test","",""
"","","","","","psychophysics","57","321250","0.0-7.0-0.0-0.23","961","","arrowright","","","","","","","","","","","","","key","arrowright","16.667241379310045","720.2857142857143","476.2857142857143","arrowleft","false","../../test_img/15.png","自我","prac_matching_task","生人","[""<img src=\""../../test_img/15.png\"" width=150 style=\""vertical-align:middle\"">---生人"",""<img src=\""../../test_img/22.png\"" width=150 style=\""vertical-align:middle\"">---自我"",""<img src=\""../../test_img/26.png\"" width=150 style=\""vertical-align:middle\"">---朋友""]","","",""
"","","","","","html-keyboard-response","58","321563","0.0-7.0-0.0-1.23","null","<span style='color:red; font-size: 70px;'>错误! </span>","null","","","","","","","","","","","","","","","","","","","","","","","","","feedback_test","",""
"","","","","","html-keyboard-response","59","339133","0.0-7.0-1.0-0.0","17569","<style>.context{color:white; font-size: 35px; line-height:40px}</style>                          <div><p class='context'>您正确回答了8% 的试次。</p ><p class='context'>您的平均反应时为664毫秒。</p >"," ","","","","","","","","","","","","","","","","","","","","","","","","","","",""
"","","","","","instructions","60","363721","0.0-7.0-1.0-1.0","24588","","","","","","","","","","","","","","[{""page_index"":0,""viewing_time"":2664},{""page_index"":1,""viewing_time"":8334},{""page_index"":2,""viewing_time"":11745},{""page_index"":3,""viewing_time"":1846}]","","","","","","","","","","","","","","",""
"","","","","","psychophysics","61","365395","0.0-7.1-0.1-0.24","673","","arrowright","","","","","","","","","","","","","key","arrowright","16.654545454545335","720.2857142857143","476.2857142857143","arrowright","true","../../test_img/26.png","朋友","prac_matching_task","朋友","[""<img src=\""../../test_img/15.png\"" width=150 style=\""vertical-align:middle\"">---生人"",""<img src=\""../../test_img/22.png\"" width=150 style=\""vertical-align:middle\"">---自我"",""<img src=\""../../test_img/26.png\"" width=150 style=\""vertical-align:middle\"">---朋友""]","","",""
"","","","","","html-keyboard-response","62","365711","0.0-7.1-0.1-1.24","null","<span style='color:GreenYellow; font-size: 70px;'>正确! </span>","null","","","","","","","","","","","","","","","","","","","","","","","","","feedback_test","",""
"","","","","","psychophysics","63","367474","0.0-7.1-0.1-0.25","755","","arrowleft","","","","","","","","","","","","","key","arrowleft","16.665714285714508","720.2857142857143","476.2857142857143","arrowleft","true","../../test_img/22.png","朋友","prac_matching_task","自我","[""<img src=\""../../test_img/15.png\"" width=150 style=\""vertical-align:middle\"">---生人"",""<img src=\""../../test_img/22.png\"" width=150 style=\""vertical-align:middle\"">---自我"",""<img src=\""../../test_img/26.png\"" width=150 style=\""vertical-align:middle\"">---朋友""]","","",""
"","","","","","html-keyboard-response","64","367778","0.0-7.1-0.1-1.25","null","<span style='color:GreenYellow; font-size: 70px;'>正确! </span>","null","","","","","","","","","","","","","","","","","","","","","","","","","feedback_test","",""
"","","","","","psychophysics","65","369458","0.0-7.1-0.1-0.26","677","","arrowright","","","","","","","","","","","","","key","arrowright","16.667000000000115","720.2857142857143","476.2857142857143","arrowleft","false","../../test_img/22.png","生人","prac_matching_task","自我","[""<img src=\""../../test_img/15.png\"" width=150 style=\""vertical-align:middle\"">---生人"",""<img src=\""../../test_img/22.png\"" width=150 style=\""vertical-align:middle\"">---自我"",""<img src=\""../../test_img/26.png\"" width=150 style=\""vertical-align:middle\"">---朋友""]","","",""
"","","","","","html-keyboard-response","66","369758","0.0-7.1-0.1-1.26","null","<span style='color:red; font-size: 70px;'>错误! </span>","null","","","","","","","","","","","","","","","","","","","","","","","","","feedback_test","",""
"","","","","","psychophysics","67","371497","0.0-7.1-0.1-0.27","735","","arrowright","","","","","","","","","","","","","key","arrowright","16.66699029126225","720.2857142857143","476.2857142857143","arrowright","true","../../test_img/26.png","朋友","prac_matching_task","朋友","[""<img src=\""../../test_img/15.png\"" width=150 style=\""vertical-align:middle\"">---生人"",""<img src=\""../../test_img/22.png\"" width=150 style=\""vertical-align:middle\"">---自我"",""<img src=\""../../test_img/26.png\"" width=150 style=\""vertical-align:middle\"">---朋友""]","","",""
"","","","","","html-keyboard-response","68","371808","0.0-7.1-0.1-1.27","null","<span style='color:GreenYellow; font-size: 70px;'>正确! </span>","null","","","","","","","","","","","","","","","","","","","","","","","","","feedback_test","",""
"","","","","","psychophysics","69","373707","0.0-7.1-0.1-0.28","885","","arrowleft","","","","","","","","","","","","","key","arrowleft","16.66548672566382","720.2857142857143","476.2857142857143","arrowleft","true","../../test_img/15.png","朋友","prac_matching_task","生人","[""<img src=\""../../test_img/15.png\"" width=150 style=\""vertical-align:middle\"">---生人"",""<img src=\""../../test_img/22.png\"" width=150 style=\""vertical-align:middle\"">---自我"",""<img src=\""../../test_img/26.png\"" width=150 style=\""vertical-align:middle\"">---朋友""]","","",""
"","","","","","html-keyboard-response","70","374014","0.0-7.1-0.1-1.28","null","<span style='color:GreenYellow; font-size: 70px;'>正确! </span>","null","","","","","","","","","","","","","","","","","","","","","","","","","feedback_test","",""
"","","","","","psychophysics","71","375894","0.0-7.1-0.1-0.29","877","","arrowright","","","","","","","","","","","","","key","arrowright","16.66785714285756","720.2857142857143","476.2857142857143","arrowright","true","../../test_img/22.png","自我","prac_matching_task","自我","[""<img src=\""../../test_img/15.png\"" width=150 style=\""vertical-align:middle\"">---生人"",""<img src=\""../../test_img/22.png\"" width=150 style=\""vertical-align:middle\"">---自我"",""<img src=\""../../test_img/26.png\"" width=150 style=\""vertical-align:middle\"">---朋友""]","","",""
"","","","","","html-keyboard-response","72","376203","0.0-7.1-0.1-1.29","null","<span style='color:GreenYellow; font-size: 70px;'>正确! </span>","null","","","","","","","","","","","","","","","","","","","","","","","","","feedback_test","",""
"","","","","","psychophysics","73","377817","0.0-7.1-0.1-0.30","612","","arrowright","","","","","","","","","","","","","key","arrowright","16.66526315789486","720.2857142857143","476.2857142857143","arrowright","true","../../test_img/22.png","自我","prac_matching_task","自我","[""<img src=\""../../test_img/15.png\"" width=150 style=\""vertical-align:middle\"">---生人"",""<img src=\""../../test_img/22.png\"" width=150 style=\""vertical-align:middle\"">---自我"",""<img src=\""../../test_img/26.png\"" width=150 style=\""vertical-align:middle\"">---朋友""]","","",""
"","","","","","html-keyboard-response","74","378131","0.0-7.1-0.1-1.30","null","<span style='color:GreenYellow; font-size: 70px;'>正确! </span>","null","","","","","","","","","","","","","","","","","","","","","","","","","feedback_test","",""
"","","","","","psychophysics","75","379928","0.0-7.1-0.1-0.31","790","","arrowleft","","","","","","","","","","","","","key","arrowleft","16.66509433962264","720.2857142857143","476.2857142857143","arrowleft","true","../../test_img/26.png","生人","prac_matching_task","朋友","[""<img src=\""../../test_img/15.png\"" width=150 style=\""vertical-align:middle\"">---生人"",""<img src=\""../../test_img/22.png\"" width=150 style=\""vertical-align:middle\"">---自我"",""<img src=\""../../test_img/26.png\"" width=150 style=\""vertical-align:middle\"">---朋友""]","","",""
"","","","","","html-keyboard-response","76","380240","0.0-7.1-0.1-1.31","null","<span style='color:GreenYellow; font-size: 70px;'>正确! </span>","null","","","","","","","","","","","","","","","","","","","","","","","","","feedback_test","",""
"","","","","","psychophysics","77","382055","0.0-7.1-0.1-0.32","802","","arrowright","","","","","","","","","","","","","key","arrowright","16.665420560747773","720.2857142857143","476.2857142857143","arrowright","true","../../test_img/15.png","生人","prac_matching_task","生人","[""<img src=\""../../test_img/15.png\"" width=150 style=\""vertical-align:middle\"">---生人"",""<img src=\""../../test_img/22.png\"" width=150 style=\""vertical-align:middle\"">---自我"",""<img src=\""../../test_img/26.png\"" width=150 style=\""vertical-align:middle\"">---朋友""]","","",""
"","","","","","html-keyboard-response","78","382360","0.0-7.1-0.1-1.32","null","<span style='color:GreenYellow; font-size: 70px;'>正确! </span>","null","","","","","","","","","","","","","","","","","","","","","","","","","feedback_test","",""
"","","","","","psychophysics","79","383929","0.0-7.1-0.1-0.33","559","","arrowright","","","","","","","","","","","","","key","arrowright","16.665591397849088","720.2857142857143","476.2857142857143","arrowright","true","../../test_img/15.png","生人","prac_matching_task","生人","[""<img src=\""../../test_img/15.png\"" width=150 style=\""vertical-align:middle\"">---生人"",""<img src=\""../../test_img/22.png\"" width=150 style=\""vertical-align:middle\"">---自我"",""<img src=\""../../test_img/26.png\"" width=150 style=\""vertical-align:middle\"">---朋友""]","","",""
"","","","","","html-keyboard-response","80","384243","0.0-7.1-0.1-1.33","null","<span style='color:GreenYellow; font-size: 70px;'>正确! </span>","null","","","","","","","","","","","","","","","","","","","","","","","","","feedback_test","",""
"","","","","","psychophysics","81","385989","0.0-7.1-0.1-0.34","733","","arrowleft","","","","","","","","","","","","","key","arrowleft","16.66601941747607","720.2857142857143","476.2857142857143","arrowleft","true","../../test_img/15.png","自我","prac_matching_task","生人","[""<img src=\""../../test_img/15.png\"" width=150 style=\""vertical-align:middle\"">---生人"",""<img src=\""../../test_img/22.png\"" width=150 style=\""vertical-align:middle\"">---自我"",""<img src=\""../../test_img/26.png\"" width=150 style=\""vertical-align:middle\"">---朋友""]","","",""
"","","","","","html-keyboard-response","82","386302","0.0-7.1-0.1-1.34","null","<span style='color:GreenYellow; font-size: 70px;'>正确! </span>","null","","","","","","","","","","","","","","","","","","","","","","","","","feedback_test","",""
"","","","","","psychophysics","83","388008","0.0-7.1-0.1-0.35","702","","arrowleft","","","","","","","","","","","","","key","arrowleft","16.667326732673498","720.2857142857143","476.2857142857143","arrowleft","true","../../test_img/26.png","自我","prac_matching_task","朋友","[""<img src=\""../../test_img/15.png\"" width=150 style=\""vertical-align:middle\"">---生人"",""<img src=\""../../test_img/22.png\"" width=150 style=\""vertical-align:middle\"">---自我"",""<img src=\""../../test_img/26.png\"" width=150 style=\""vertical-align:middle\"">---朋友""]","","",""
"","","","","","html-keyboard-response","84","388311","0.0-7.1-0.1-1.35","null","<span style='color:GreenYellow; font-size: 70px;'>正确! </span>","null","","","","","","","","","","","","","","","","","","","","","","","","","feedback_test","",""
"","","","","","psychophysics","85","390125","0.0-7.1-0.1-0.36","804","","arrowright","","","","","","","","","","","","","key","arrowright","16.667592592592378","720.2857142857143","476.2857142857143","arrowleft","false","../../test_img/26.png","自我","prac_matching_task","朋友","[""<img src=\""../../test_img/15.png\"" width=150 style=\""vertical-align:middle\"">---生人"",""<img src=\""../../test_img/22.png\"" width=150 style=\""vertical-align:middle\"">---自我"",""<img src=\""../../test_img/26.png\"" width=150 style=\""vertical-align:middle\"">---朋友""]","","",""
"","","","","","html-keyboard-response","86","390426","0.0-7.1-0.1-1.36","null","<span style='color:red; font-size: 70px;'>错误! </span>","null","","","","","","","","","","","","","","","","","","","","","","","","","feedback_test","",""
"","","","","","psychophysics","87","392301","0.0-7.1-0.1-0.37","870","","arrowleft","","","","","","","","","","","","","key","arrowleft","16.665765765765975","720.2857142857143","476.2857142857143","arrowleft","true","../../test_img/22.png","生人","prac_matching_task","自我","[""<img src=\""../../test_img/15.png\"" width=150 style=\""vertical-align:middle\"">---生人"",""<img src=\""../../test_img/22.png\"" width=150 style=\""vertical-align:middle\"">---自我"",""<img src=\""../../test_img/26.png\"" width=150 style=\""vertical-align:middle\"">---朋友""]","","",""
"","","","","","html-keyboard-response","88","392602","0.0-7.1-0.1-1.37","null","<span style='color:GreenYellow; font-size: 70px;'>正确! </span>","null","","","","","","","","","","","","","","","","","","","","","","","","","feedback_test","",""
"","","","","","psychophysics","89","394271","0.0-7.1-0.1-0.38","666","","arrowright","","","","","","","","","","","","","key","arrowright","16.666666666666668","720.2857142857143","476.2857142857143","arrowright","true","../../test_img/22.png","自我","prac_matching_task","自我","[""<img src=\""../../test_img/15.png\"" width=150 style=\""vertical-align:middle\"">---生人"",""<img src=\""../../test_img/22.png\"" width=150 style=\""vertical-align:middle\"">---自我"",""<img src=\""../../test_img/26.png\"" width=150 style=\""vertical-align:middle\"">---朋友""]","","",""
"","","","","","html-keyboard-response","90","394583","0.0-7.1-0.1-1.38","null","<span style='color:GreenYellow; font-size: 70px;'>正确! </span>","null","","","","","","","","","","","","","","","","","","","","","","","","","feedback_test","",""
"","","","","","psychophysics","91","396266","0.0-7.1-0.1-0.39","677","","arrowright","","","","","","","","","","","","","key","arrowright","16.666666666666668","720.2857142857143","476.2857142857143","arrowright","true","../../test_img/15.png","生人","prac_matching_task","生人","[""<img src=\""../../test_img/15.png\"" width=150 style=\""vertical-align:middle\"">---生人"",""<img src=\""../../test_img/22.png\"" width=150 style=\""vertical-align:middle\"">---自我"",""<img src=\""../../test_img/26.png\"" width=150 style=\""vertical-align:middle\"">---朋友""]","","",""
"","","","","","html-keyboard-response","92","396568","0.0-7.1-0.1-1.39","null","<span style='color:GreenYellow; font-size: 70px;'>正确! </span>","null","","","","","","","","","","","","","","","","","","","","","","","","","feedback_test","",""
"","","","","","psychophysics","93","398165","0.0-7.1-0.1-0.40","594","","arrowright","","","","","","","","","","","","","key","arrowright","16.668085106382854","720.2857142857143","476.2857142857143","arrowleft","false","../../test_img/15.png","自我","prac_matching_task","生人","[""<img src=\""../../test_img/15.png\"" width=150 style=\""vertical-align:middle\"">---生人"",""<img src=\""../../test_img/22.png\"" width=150 style=\""vertical-align:middle\"">---自我"",""<img src=\""../../test_img/26.png\"" width=150 style=\""vertical-align:middle\"">---朋友""]","","",""
"","","","","","html-keyboard-response","94","398469","0.0-7.1-0.1-1.40","null","<span style='color:red; font-size: 70px;'>错误! </span>","null","","","","","","","","","","","","","","","","","","","","","","","","","feedback_test","",""
"","","","","","psychophysics","95","400329","0.0-7.1-0.1-0.41","857","","arrowright","","","","","","","","","","","","","key","arrowright","16.667272727272938","720.2857142857143","476.2857142857143","arrowright","true","../../test_img/26.png","朋友","prac_matching_task","朋友","[""<img src=\""../../test_img/15.png\"" width=150 style=\""vertical-align:middle\"">---生人"",""<img src=\""../../test_img/22.png\"" width=150 style=\""vertical-align:middle\"">---自我"",""<img src=\""../../test_img/26.png\"" width=150 style=\""vertical-align:middle\"">---朋友""]","","",""
"","","","","","html-keyboard-response","96","400638","0.0-7.1-0.1-1.41","null","<span style='color:GreenYellow; font-size: 70px;'>正确! </span>","null","","","","","","","","","","","","","","","","","","","","","","","","","feedback_test","",""
"","","","","","psychophysics","97","402308","0.0-7.1-0.1-0.42","670","","arrowleft","","","","","","","","","","","","","key","arrowleft","16.665656565656214","720.2857142857143","476.2857142857143","arrowleft","true","../../test_img/22.png","朋友","prac_matching_task","自我","[""<img src=\""../../test_img/15.png\"" width=150 style=\""vertical-align:middle\"">---生人"",""<img src=\""../../test_img/22.png\"" width=150 style=\""vertical-align:middle\"">---自我"",""<img src=\""../../test_img/26.png\"" width=150 style=\""vertical-align:middle\"">---朋友""]","","",""
"","","","","","html-keyboard-response","98","402614","0.0-7.1-0.1-1.42","null","<span style='color:GreenYellow; font-size: 70px;'>正确! </span>","null","","","","","","","","","","","","","","","","","","","","","","","","","feedback_test","",""
"","","","","","psychophysics","99","404330","0.0-7.1-0.1-0.43","708","","arrowleft","","","","","","","","","","","","","key","arrowleft","16.668316831683168","720.2857142857143","476.2857142857143","arrowleft","true","../../test_img/15.png","朋友","prac_matching_task","生人","[""<img src=\""../../test_img/15.png\"" width=150 style=\""vertical-align:middle\"">---生人"",""<img src=\""../../test_img/22.png\"" width=150 style=\""vertical-align:middle\"">---自我"",""<img src=\""../../test_img/26.png\"" width=150 style=\""vertical-align:middle\"">---朋友""]","","",""
"","","","","","html-keyboard-response","100","404643","0.0-7.1-0.1-1.43","null","<span style='color:GreenYellow; font-size: 70px;'>正确! </span>","null","","","","","","","","","","","","","","","","","","","","","","","","","feedback_test","",""
"","","","","","psychophysics","101","406390","0.0-7.1-0.1-0.44","736","","arrowright","","","","","","","","","","","","","key","arrowright","16.666346153846042","720.2857142857143","476.2857142857143","arrowright","true","../../test_img/15.png","生人","prac_matching_task","生人","[""<img src=\""../../test_img/15.png\"" width=150 style=\""vertical-align:middle\"">---生人"",""<img src=\""../../test_img/22.png\"" width=150 style=\""vertical-align:middle\"">---自我"",""<img src=\""../../test_img/26.png\"" width=150 style=\""vertical-align:middle\"">---朋友""]","","",""
"","","","","","html-keyboard-response","102","406696","0.0-7.1-0.1-1.44","null","<span style='color:GreenYellow; font-size: 70px;'>正确! </span>","null","","","","","","","","","","","","","","","","","","","","","","","","","feedback_test","",""
"","","","","","psychophysics","103","408625","0.0-7.1-0.1-0.45","915","","arrowright","","","","","","","","","","","","","key","arrowright","16.66695652173923","720.2857142857143","476.2857142857143","arrowright","true","../../test_img/26.png","朋友","prac_matching_task","朋友","[""<img src=\""../../test_img/15.png\"" width=150 style=\""vertical-align:middle\"">---生人"",""<img src=\""../../test_img/22.png\"" width=150 style=\""vertical-align:middle\"">---自我"",""<img src=\""../../test_img/26.png\"" width=150 style=\""vertical-align:middle\"">---朋友""]","","",""
"","","","","","html-keyboard-response","104","408941","0.0-7.1-0.1-1.45","null","<span style='color:GreenYellow; font-size: 70px;'>正确! </span>","null","","","","","","","","","","","","","","","","","","","","","","","","","feedback_test","",""
"","","","","","psychophysics","105","410678","0.0-7.1-0.1-0.46","720","","arrowright","","","","","","","","","","","","","key","arrowright","16.668932038835177","720.2857142857143","476.2857142857143","arrowright","true","../../test_img/22.png","自我","prac_matching_task","自我","[""<img src=\""../../test_img/15.png\"" width=150 style=\""vertical-align:middle\"">---生人"",""<img src=\""../../test_img/22.png\"" width=150 style=\""vertical-align:middle\"">---自我"",""<img src=\""../../test_img/26.png\"" width=150 style=\""vertical-align:middle\"">---朋友""]","","",""
"","","","","","html-keyboard-response","106","410982","0.0-7.1-0.1-1.46","null","<span style='color:GreenYellow; font-size: 70px;'>正确! </span>","null","","","","","","","","","","","","","","","","","","","","","","","","","feedback_test","",""
"","","","","","psychophysics","107","412746","0.0-7.1-0.1-0.47","758","","arrowleft","","","","","","","","","","","","","key","arrowleft","16.667307692307915","720.2857142857143","476.2857142857143","arrowleft","true","../../test_img/26.png","生人","prac_matching_task","朋友","[""<img src=\""../../test_img/15.png\"" width=150 style=\""vertical-align:middle\"">---生人"",""<img src=\""../../test_img/22.png\"" width=150 style=\""vertical-align:middle\"">---自我"",""<img src=\""../../test_img/26.png\"" width=150 style=\""vertical-align:middle\"">---朋友""]","","",""
"","","","","","html-keyboard-response","108","413054","0.0-7.1-0.1-1.47","null","<span style='color:GreenYellow; font-size: 70px;'>正确! </span>","null","","","","","","","","","","","","","","","","","","","","","","","","","feedback_test","",""
"","","","","","html-keyboard-response","109","421496","0.0-8.0","8441","<style>.context{color:white; font-size: 35px; line-height:40px}</style>                          <div><p class='context'>您正确回答了88% 的试次。</p ><p class='context'>您的平均反应时为748毫秒。</p ><p class='context'>恭喜您完成练习。按任意键进入知觉匹配任务正式实验。</p ><p style = 'color:lightgreen; font-size: 35px;' >正式实验与练习要求相同，请您尽可能又快又准地进行按键反应</p><p class='footer' style='font-size: 22px; line-height:40px;'>请将您右手的<span style='color: lightgreen;'>食指与无名指</span>放在电脑键盘的相应键位上进行按键。</p >"," ","","","","","","","","","","","","","","","","","","","","","","","","","","",""
"","","","","","psychophysics","110","423164","0.0-9.0-0.0-0.0-0.0-0.0","666","","arrowright","","","","","","","","","","","","","key","arrowright","16.667676767676532","720.2857142857143","476.2857142857143","arrowleft","false","../../test_img/15.png","自我","matching_task","生人","[""<img src=\""../../test_img/15.png\"" width=150 style=\""vertical-align:middle\"">---生人"",""<img src=\""../../test_img/22.png\"" width=150 style=\""vertical-align:middle\"">---自我"",""<img src=\""../../test_img/26.png\"" width=150 style=\""vertical-align:middle\"">---朋友""]","","",""
"","","","","","html-keyboard-response","111","423668","0.0-9.0-0.0-0.0-0.0-1.0","null","<span style='color:red; font-size: 70px;'>错误! </span>","null","","","","","","","","","","","","","","","","","","","","","","","","","feedback_test","",""
"","","","","","psychophysics","112","425458","0.0-9.0-0.0-0.0-0.0-0.1","786","","arrowright","","","","","","","","","","","","","key","arrowright","16.666037735849386","720.2857142857143","476.2857142857143","arrowright","true","../../test_img/26.png","朋友","matching_task","朋友","[""<img src=\""../../test_img/15.png\"" width=150 style=\""vertical-align:middle\"">---生人"",""<img src=\""../../test_img/22.png\"" width=150 style=\""vertical-align:middle\"">---自我"",""<img src=\""../../test_img/26.png\"" width=150 style=\""vertical-align:middle\"">---朋友""]","","",""
"","","","","","html-keyboard-response","113","425968","0.0-9.0-0.0-0.0-0.0-1.1","null","<span style='color:GreenYellow; font-size: 70px;'>正确! </span>","null","","","","","","","","","","","","","","","","","","","","","","","","","feedback_test","",""
"","","","","","psychophysics","114","427791","0.0-9.0-0.0-0.0-0.0-0.2","819","","arrowleft","","","","","","","","","","","","","key","arrowleft","16.665740740740958","720.2857142857143","476.2857142857143","arrowleft","true","../../test_img/26.png","生人","matching_task","朋友","[""<img src=\""../../test_img/15.png\"" width=150 style=\""vertical-align:middle\"">---生人"",""<img src=\""../../test_img/22.png\"" width=150 style=\""vertical-align:middle\"">---自我"",""<img src=\""../../test_img/26.png\"" width=150 style=\""vertical-align:middle\"">---朋友""]","","",""
"","","","","","html-keyboard-response","115","428294","0.0-9.0-0.0-0.0-0.0-1.2","null","<span style='color:GreenYellow; font-size: 70px;'>正确! </span>","null","","","","","","","","","","","","","","","","","","","","","","","","","feedback_test","",""
"","","","","","psychophysics","116","430166","0.0-9.0-0.0-0.0-0.0-0.3","867","","arrowleft","","","","","","","","","","","","","key","arrowleft","16.667567567567357","720.2857142857143","476.2857142857143","arrowleft","true","../../test_img/26.png","自我","matching_task","朋友","[""<img src=\""../../test_img/15.png\"" width=150 style=\""vertical-align:middle\"">---生人"",""<img src=\""../../test_img/22.png\"" width=150 style=\""vertical-align:middle\"">---自我"",""<img src=\""../../test_img/26.png\"" width=150 style=\""vertical-align:middle\"">---朋友""]","","",""
"","","","","","html-keyboard-response","117","430676","0.0-9.0-0.0-0.0-0.0-1.3","null","<span style='color:GreenYellow; font-size: 70px;'>正确! </span>","null","","","","","","","","","","","","","","","","","","","","","","","","","feedback_test","",""
"","","","","","psychophysics","118","432554","0.0-9.0-0.0-0.0-0.0-0.4","866","","arrowright","","","","","","","","","","","","","key","arrowright","16.667567567567882","720.2857142857143","476.2857142857143","arrowright","true","../../test_img/22.png","自我","matching_task","自我","[""<img src=\""../../test_img/15.png\"" width=150 style=\""vertical-align:middle\"">---生人"",""<img src=\""../../test_img/22.png\"" width=150 style=\""vertical-align:middle\"">---自我"",""<img src=\""../../test_img/26.png\"" width=150 style=\""vertical-align:middle\"">---朋友""]","","",""
"","","","","","html-keyboard-response","119","433063","0.0-9.0-0.0-0.0-0.0-1.4","null","<span style='color:GreenYellow; font-size: 70px;'>正确! </span>","null","","","","","","","","","","","","","","","","","","","","","","","","","feedback_test","",""
"","","","","","psychophysics","120","434923","0.0-9.0-0.0-0.0-0.0-0.5","851","","arrowleft","","","","","","","","","","","","","key","arrowleft","16.66454545454577","720.2857142857143","476.2857142857143","arrowleft","true","../../test_img/22.png","朋友","matching_task","自我","[""<img src=\""../../test_img/15.png\"" width=150 style=\""vertical-align:middle\"">---生人"",""<img src=\""../../test_img/22.png\"" width=150 style=\""vertical-align:middle\"">---自我"",""<img src=\""../../test_img/26.png\"" width=150 style=\""vertical-align:middle\"">---朋友""]","","",""
"","","","","","html-keyboard-response","121","435434","0.0-9.0-0.0-0.0-0.0-1.5","null","<span style='color:GreenYellow; font-size: 70px;'>正确! </span>","null","","","","","","","","","","","","","","","","","","","","","","","","","feedback_test","",""
"","","","","","psychophysics","122","437222","0.0-9.0-0.0-0.0-0.0-0.6","784","","arrowright","","","","","","","","","","","","","key","arrowright","16.666037735849386","720.2857142857143","476.2857142857143","arrowright","true","../../test_img/15.png","生人","matching_task","生人","[""<img src=\""../../test_img/15.png\"" width=150 style=\""vertical-align:middle\"">---生人"",""<img src=\""../../test_img/22.png\"" width=150 style=\""vertical-align:middle\"">---自我"",""<img src=\""../../test_img/26.png\"" width=150 style=\""vertical-align:middle\"">---朋友""]","","",""
"","","","","","html-keyboard-response","123","437731","0.0-9.0-0.0-0.0-0.0-1.6","null","<span style='color:GreenYellow; font-size: 70px;'>正确! </span>","null","","","","","","","","","","","","","","","","","","","","","","","","","feedback_test","",""
"","","","","","psychophysics","124","439483","0.0-9.0-0.0-0.0-0.0-0.7","744","","arrowleft","","","","","","","","","","","","","key","arrowleft","16.66699029126225","720.2857142857143","476.2857142857143","arrowleft","true","../../test_img/15.png","朋友","matching_task","生人","[""<img src=\""../../test_img/15.png\"" width=150 style=\""vertical-align:middle\"">---生人"",""<img src=\""../../test_img/22.png\"" width=150 style=\""vertical-align:middle\"">---自我"",""<img src=\""../../test_img/26.png\"" width=150 style=\""vertical-align:middle\"">---朋友""]","","",""
"","","","","","html-keyboard-response","125","439990","0.0-9.0-0.0-0.0-0.0-1.7","null","<span style='color:GreenYellow; font-size: 70px;'>正确! </span>","null","","","","","","","","","","","","","","","","","","","","","","","","","feedback_test","",""
"","","","","","psychophysics","126","441736","0.0-9.0-0.0-0.0-0.0-0.8","736","","arrowright","","","","","","","","","","","","","key","arrowright","16.66504854368932","720.2857142857143","476.2857142857143","arrowright","true","../../test_img/15.png","生人","matching_task","生人","[""<img src=\""../../test_img/15.png\"" width=150 style=\""vertical-align:middle\"">---生人"",""<img src=\""../../test_img/22.png\"" width=150 style=\""vertical-align:middle\"">---自我"",""<img src=\""../../test_img/26.png\"" width=150 style=\""vertical-align:middle\"">---朋友""]","","",""
"","","","","","html-keyboard-response","127","442253","0.0-9.0-0.0-0.0-0.0-1.8","null","<span style='color:GreenYellow; font-size: 70px;'>正确! </span>","null","","","","","","","","","","","","","","","","","","","","","","","","","feedback_test","",""
"","","","","","psychophysics","128","444099","0.0-9.0-0.0-0.0-0.0-0.9","844","","arrowright","","","","","","","","","","","","","key","arrowright","16.666055045871346","720.2857142857143","476.2857142857143","arrowright","true","../../test_img/26.png","朋友","matching_task","朋友","[""<img src=\""../../test_img/15.png\"" width=150 style=\""vertical-align:middle\"">---生人"",""<img src=\""../../test_img/22.png\"" width=150 style=\""vertical-align:middle\"">---自我"",""<img src=\""../../test_img/26.png\"" width=150 style=\""vertical-align:middle\"">---朋友""]","","",""
"","","","","","html-keyboard-response","129","444606","0.0-9.0-0.0-0.0-0.0-1.9","null","<span style='color:GreenYellow; font-size: 70px;'>正确! </span>","null","","","","","","","","","","","","","","","","","","","","","","","","","feedback_test","",""
"","","","","","psychophysics","130","446308","0.0-9.0-0.0-0.0-0.0-0.10","689","","arrowright","","","","","","","","","","","","","key","arrowright","16.66534653465358","720.2857142857143","476.2857142857143","arrowleft","false","../../test_img/22.png","生人","matching_task","自我","[""<img src=\""../../test_img/15.png\"" width=150 style=\""vertical-align:middle\"">---生人"",""<img src=\""../../test_img/22.png\"" width=150 style=\""vertical-align:middle\"">---自我"",""<img src=\""../../test_img/26.png\"" width=150 style=\""vertical-align:middle\"">---朋友""]","","",""
"","","","","","html-keyboard-response","131","446823","0.0-9.0-0.0-0.0-0.0-1.10","null","<span style='color:red; font-size: 70px;'>错误! </span>","null","","","","","","","","","","","","","","","","","","","","","","","","","feedback_test","",""
"","","","","","psychophysics","132","448533","0.0-9.0-0.0-0.0-0.0-0.11","695","","arrowright","","","","","","","","","","","","","key","arrowright","16.66534653465358","720.2857142857143","476.2857142857143","arrowright","true","../../test_img/22.png","自我","matching_task","自我","[""<img src=\""../../test_img/15.png\"" width=150 style=\""vertical-align:middle\"">---生人"",""<img src=\""../../test_img/22.png\"" width=150 style=\""vertical-align:middle\"">---自我"",""<img src=\""../../test_img/26.png\"" width=150 style=\""vertical-align:middle\"">---朋友""]","","",""
"","","","","","html-keyboard-response","133","449035","0.0-9.0-0.0-0.0-0.0-1.11","null","<span style='color:GreenYellow; font-size: 70px;'>正确! </span>","null","","","","","","","","","","","","","","","","","","","","","","","","","feedback_test","",""
"","","","","","psychophysics","134","450855","0.0-9.0-0.0-0.0-0.0-0.12","817","","arrowleft","","","","","","","","","","","","","key","arrowleft","16.666355140186806","720.2857142857143","476.2857142857143","arrowleft","true","../../test_img/15.png","朋友","matching_task","生人","[""<img src=\""../../test_img/15.png\"" width=150 style=\""vertical-align:middle\"">---生人"",""<img src=\""../../test_img/22.png\"" width=150 style=\""vertical-align:middle\"">---自我"",""<img src=\""../../test_img/26.png\"" width=150 style=\""vertical-align:middle\"">---朋友""]","","",""
"","","","","","html-keyboard-response","135","451363","0.0-9.0-0.0-0.0-0.0-1.12","null","<span style='color:GreenYellow; font-size: 70px;'>正确! </span>","null","","","","","","","","","","","","","","","","","","","","","","","","","feedback_test","",""
"","","","","","psychophysics","136","453099","0.0-9.0-0.0-0.0-0.0-0.13","727","","arrowright","","","","","","","","","","","","","key","arrowright","16.664705882352827","720.2857142857143","476.2857142857143","arrowright","true","../../test_img/26.png","朋友","matching_task","朋友","[""<img src=\""../../test_img/15.png\"" width=150 style=\""vertical-align:middle\"">---生人"",""<img src=\""../../test_img/22.png\"" width=150 style=\""vertical-align:middle\"">---自我"",""<img src=\""../../test_img/26.png\"" width=150 style=\""vertical-align:middle\"">---朋友""]","","",""
"","","","","","html-keyboard-response","137","453614","0.0-9.0-0.0-0.0-0.0-1.13","null","<span style='color:GreenYellow; font-size: 70px;'>正确! </span>","null","","","","","","","","","","","","","","","","","","","","","","","","","feedback_test","",""
"","","","","","psychophysics","138","455334","0.0-9.0-0.0-0.0-0.0-0.14","712","","arrowright","","","","","","","","","","","","","key","arrowright","16.66633663366383","720.2857142857143","476.2857142857143","arrowright","true","../../test_img/22.png","自我","matching_task","自我","[""<img src=\""../../test_img/15.png\"" width=150 style=\""vertical-align:middle\"">---生人"",""<img src=\""../../test_img/22.png\"" width=150 style=\""vertical-align:middle\"">---自我"",""<img src=\""../../test_img/26.png\"" width=150 style=\""vertical-align:middle\"">---朋友""]","","",""
"","","","","","html-keyboard-response","139","455842","0.0-9.0-0.0-0.0-0.0-1.14","null","<span style='color:GreenYellow; font-size: 70px;'>正确! </span>","null","","","","","","","","","","","","","","","","","","","","","","","","","feedback_test","",""
"","","","","","psychophysics","140","457613","0.0-9.0-0.0-0.0-0.0-0.15","759","","arrowleft","","","","","","","","","","","","","key","arrowleft","16.666666666666668","720.2857142857143","476.2857142857143","arrowleft","true","../../test_img/26.png","自我","matching_task","朋友","[""<img src=\""../../test_img/15.png\"" width=150 style=\""vertical-align:middle\"">---生人"",""<img src=\""../../test_img/22.png\"" width=150 style=\""vertical-align:middle\"">---自我"",""<img src=\""../../test_img/26.png\"" width=150 style=\""vertical-align:middle\"">---朋友""]","","",""
"","","","","","html-keyboard-response","141","458119","0.0-9.0-0.0-0.0-0.0-1.15","null","<span style='color:GreenYellow; font-size: 70px;'>正确! </span>","null","","","","","","","","","","","","","","","","","","","","","","","","","feedback_test","",""
"","","","","","psychophysics","142","460257","0.0-9.0-0.0-0.0-0.0-0.16","1136","","arrowright","","","","","","","","","","","","","key","arrowright","16.665354330708663","720.2857142857143","476.2857142857143","arrowright","true","../../test_img/15.png","生人","matching_task","生人","[""<img src=\""../../test_img/15.png\"" width=150 style=\""vertical-align:middle\"">---生人"",""<img src=\""../../test_img/22.png\"" width=150 style=\""vertical-align:middle\"">---自我"",""<img src=\""../../test_img/26.png\"" width=150 style=\""vertical-align:middle\"">---朋友""]","","",""
"","","","","","html-keyboard-response","143","460760","0.0-9.0-0.0-0.0-0.0-1.16","null","<span style='color:GreenYellow; font-size: 70px;'>正确! </span>","null","","","","","","","","","","","","","","","","","","","","","","","","","feedback_test","",""
"","","","","","psychophysics","144","462623","0.0-9.0-0.0-0.0-0.0-0.17","851","","arrowright","","","","","","","","","","","","","key","arrowright","16.66576576576545","720.2857142857143","476.2857142857143","arrowright","true","../../test_img/26.png","朋友","matching_task","朋友","[""<img src=\""../../test_img/15.png\"" width=150 style=\""vertical-align:middle\"">---生人"",""<img src=\""../../test_img/22.png\"" width=150 style=\""vertical-align:middle\"">---自我"",""<img src=\""../../test_img/26.png\"" width=150 style=\""vertical-align:middle\"">---朋友""]","","",""
"","","","","","html-keyboard-response","145","463133","0.0-9.0-0.0-0.0-0.0-1.17","null","<span style='color:GreenYellow; font-size: 70px;'>正确! </span>","null","","","","","","","","","","","","","","","","","","","","","","","","","feedback_test","",""
"","","","","","psychophysics","146","464911","0.0-9.0-0.0-0.0-0.0-0.18","772","","arrowleft","","","","","","","","","","","","","key","arrowleft","16.667619047618825","720.2857142857143","476.2857142857143","arrowleft","true","../../test_img/22.png","朋友","matching_task","自我","[""<img src=\""../../test_img/15.png\"" width=150 style=\""vertical-align:middle\"">---生人"",""<img src=\""../../test_img/22.png\"" width=150 style=\""vertical-align:middle\"">---自我"",""<img src=\""../../test_img/26.png\"" width=150 style=\""vertical-align:middle\"">---朋友""]","","",""
"","","","","","html-keyboard-response","147","465420","0.0-9.0-0.0-0.0-0.0-1.18","null","<span style='color:GreenYellow; font-size: 70px;'>正确! </span>","null","","","","","","","","","","","","","","","","","","","","","","","","","feedback_test","",""
"","","","","","psychophysics","148","467374","0.0-9.0-0.0-0.0-0.0-0.19","952","","arrowleft","","","","","","","","","","","","","key","arrowleft","16.665517241379412","720.2857142857143","476.2857142857143","arrowleft","true","../../test_img/15.png","自我","matching_task","生人","[""<img src=\""../../test_img/15.png\"" width=150 style=\""vertical-align:middle\"">---生人"",""<img src=\""../../test_img/22.png\"" width=150 style=\""vertical-align:middle\"">---自我"",""<img src=\""../../test_img/26.png\"" width=150 style=\""vertical-align:middle\"">---朋友""]","","",""
"","","","","","html-keyboard-response","149","467886","0.0-9.0-0.0-0.0-0.0-1.19","null","<span style='color:GreenYellow; font-size: 70px;'>正确! </span>","null","","","","","","","","","","","","","","","","","","","","","","","","","feedback_test","",""
"","","","","","psychophysics","150","469939","0.0-9.0-0.0-0.0-0.0-0.20","1050","","arrowleft","","","","","","","","","","","","","key","arrowleft","16.6655737704919","720.2857142857143","476.2857142857143","arrowleft","true","../../test_img/22.png","生人","matching_task","自我","[""<img src=\""../../test_img/15.png\"" width=150 style=\""vertical-align:middle\"">---生人"",""<img src=\""../../test_img/22.png\"" width=150 style=\""vertical-align:middle\"">---自我"",""<img src=\""../../test_img/26.png\"" width=150 style=\""vertical-align:middle\"">---朋友""]","","",""
"","","","","","html-keyboard-response","151","470445","0.0-9.0-0.0-0.0-0.0-1.20","null","<span style='color:GreenYellow; font-size: 70px;'>正确! </span>","null","","","","","","","","","","","","","","","","","","","","","","","","","feedback_test","",""
"","","","","","psychophysics","152","472187","0.0-9.0-0.0-0.0-0.0-0.21","739","","arrowright","","","","","","","","","","","","","key","arrowright","16.667961165048997","720.2857142857143","476.2857142857143","arrowright","true","../../test_img/22.png","自我","matching_task","自我","[""<img src=\""../../test_img/15.png\"" width=150 style=\""vertical-align:middle\"">---生人"",""<img src=\""../../test_img/22.png\"" width=150 style=\""vertical-align:middle\"">---自我"",""<img src=\""../../test_img/26.png\"" width=150 style=\""vertical-align:middle\"">---朋友""]","","",""
"","","","","","html-keyboard-response","153","472694","0.0-9.0-0.0-0.0-0.0-1.21","null","<span style='color:GreenYellow; font-size: 70px;'>正确! </span>","null","","","","","","","","","","","","","","","","","","","","","","","","","feedback_test","",""
"","","","","","psychophysics","154","474369","0.0-9.0-0.0-0.0-0.0-0.22","664","","arrowleft","","","","","","","","","","","","","key","arrowleft","16.666666666666668","720.2857142857143","476.2857142857143","arrowleft","true","../../test_img/26.png","生人","matching_task","朋友","[""<img src=\""../../test_img/15.png\"" width=150 style=\""vertical-align:middle\"">---生人"",""<img src=\""../../test_img/22.png\"" width=150 style=\""vertical-align:middle\"">---自我"",""<img src=\""../../test_img/26.png\"" width=150 style=\""vertical-align:middle\"">---朋友""]","","",""
"","","","","","html-keyboard-response","155","474879","0.0-9.0-0.0-0.0-0.0-1.22","null","<span style='color:GreenYellow; font-size: 70px;'>正确! </span>","null","","","","","","","","","","","","","","","","","","","","","","","","","feedback_test","",""
"","","","","","psychophysics","156","476787","0.0-9.0-0.0-0.0-0.0-0.23","898","","arrowright","","","","","","","","","","","","","key","arrowright","16.667256637168347","720.2857142857143","476.2857142857143","arrowright","true","../../test_img/15.png","生人","matching_task","生人","[""<img src=\""../../test_img/15.png\"" width=150 style=\""vertical-align:middle\"">---生人"",""<img src=\""../../test_img/22.png\"" width=150 style=\""vertical-align:middle\"">---自我"",""<img src=\""../../test_img/26.png\"" width=150 style=\""vertical-align:middle\"">---朋友""]","","",""
"","","","","","html-keyboard-response","157","477300","0.0-9.0-0.0-0.0-0.0-1.23","null","<span style='color:GreenYellow; font-size: 70px;'>正确! </span>","null","","","","","","","","","","","","","","","","","","","","","","","","","feedback_test","",""
"","","","","","psychophysics","158","479309","0.0-9.0-0.0-0.0-0.0-0.24","1004","","arrowright","","","","","","","","","","","","","key","arrowright","16.666386554621752","720.2857142857143","476.2857142857143","arrowright","true","../../test_img/15.png","生人","matching_task","生人","[""<img src=\""../../test_img/15.png\"" width=150 style=\""vertical-align:middle\"">---生人"",""<img src=\""../../test_img/22.png\"" width=150 style=\""vertical-align:middle\"">---自我"",""<img src=\""../../test_img/26.png\"" width=150 style=\""vertical-align:middle\"">---朋友""]","","",""
"","","","","","html-keyboard-response","159","479823","0.0-9.0-0.0-0.0-0.0-1.24","null","<span style='color:GreenYellow; font-size: 70px;'>正确! </span>","null","","","","","","","","","","","","","","","","","","","","","","","","","feedback_test","",""
"","","","","","psychophysics","160","481447","0.0-9.0-0.0-0.0-0.0-0.25","613","","arrowleft","","","","","","","","","","","","","key","arrowleft","16.668749999999516","720.2857142857143","476.2857142857143","arrowright","false","../../test_img/26.png","朋友","matching_task","朋友","[""<img src=\""../../test_img/15.png\"" width=150 style=\""vertical-align:middle\"">---生人"",""<img src=\""../../test_img/22.png\"" width=150 style=\""vertical-align:middle\"">---自我"",""<img src=\""../../test_img/26.png\"" width=150 style=\""vertical-align:middle\"">---朋友""]","","",""
"","","","","","html-keyboard-response","161","481955","0.0-9.0-0.0-0.0-0.0-1.25","null","<span style='color:red; font-size: 70px;'>错误! </span>","null","","","","","","","","","","","","","","","","","","","","","","","","","feedback_test","",""
"","","","","","psychophysics","162","483792","0.0-9.0-0.0-0.0-0.0-0.26","822","","arrowleft","","","","","","","","","","","","","key","arrowleft","16.667889908256775","720.2857142857143","476.2857142857143","arrowleft","true","../../test_img/22.png","生人","matching_task","自我","[""<img src=\""../../test_img/15.png\"" width=150 style=\""vertical-align:middle\"">---生人"",""<img src=\""../../test_img/22.png\"" width=150 style=\""vertical-align:middle\"">---自我"",""<img src=\""../../test_img/26.png\"" width=150 style=\""vertical-align:middle\"">---朋友""]","","",""
"","","","","","html-keyboard-response","163","484295","0.0-9.0-0.0-0.0-0.0-1.26","null","<span style='color:GreenYellow; font-size: 70px;'>正确! </span>","null","","","","","","","","","","","","","","","","","","","","","","","","","feedback_test","",""
"","","","","","psychophysics","164","486202","0.0-9.0-0.0-0.0-0.0-0.27","906","","arrowleft","","","","","","","","","","","","","key","arrowleft","16.66637168141634","720.2857142857143","476.2857142857143","arrowleft","true","../../test_img/26.png","自我","matching_task","朋友","[""<img src=\""../../test_img/15.png\"" width=150 style=\""vertical-align:middle\"">---生人"",""<img src=\""../../test_img/22.png\"" width=150 style=\""vertical-align:middle\"">---自我"",""<img src=\""../../test_img/26.png\"" width=150 style=\""vertical-align:middle\"">---朋友""]","","",""
"","","","","","html-keyboard-response","165","486711","0.0-9.0-0.0-0.0-0.0-1.27","null","<span style='color:GreenYellow; font-size: 70px;'>正确! </span>","null","","","","","","","","","","","","","","","","","","","","","","","","","feedback_test","",""
"","","","","","psychophysics","166","488445","0.0-9.0-0.0-0.0-0.0-0.28","720","","arrowright","","","","","","","","","","","","","key","arrowright","16.668932038834612","720.2857142857143","476.2857142857143","arrowright","true","../../test_img/26.png","朋友","matching_task","朋友","[""<img src=\""../../test_img/15.png\"" width=150 style=\""vertical-align:middle\"">---生人"",""<img src=\""../../test_img/22.png\"" width=150 style=\""vertical-align:middle\"">---自我"",""<img src=\""../../test_img/26.png\"" width=150 style=\""vertical-align:middle\"">---朋友""]","","",""
"","","","","","html-keyboard-response","167","488954","0.0-9.0-0.0-0.0-0.0-1.28","null","<span style='color:GreenYellow; font-size: 70px;'>正确! </span>","null","","","","","","","","","","","","","","","","","","","","","","","","","feedback_test","",""
"","","","","","psychophysics","168","490675","0.0-9.0-0.0-0.0-0.0-0.29","707","","arrowright","","","","","","","","","","","","","key","arrowright","16.664705882352827","720.2857142857143","476.2857142857143","arrowright","true","../../test_img/22.png","自我","matching_task","自我","[""<img src=\""../../test_img/15.png\"" width=150 style=\""vertical-align:middle\"">---生人"",""<img src=\""../../test_img/22.png\"" width=150 style=\""vertical-align:middle\"">---自我"",""<img src=\""../../test_img/26.png\"" width=150 style=\""vertical-align:middle\"">---朋友""]","","",""
"","","","","","html-keyboard-response","169","491189","0.0-9.0-0.0-0.0-0.0-1.29","null","<span style='color:GreenYellow; font-size: 70px;'>正确! </span>","null","","","","","","","","","","","","","","","","","","","","","","","","","feedback_test","",""
"","","","","","psychophysics","170","492957","0.0-9.0-0.0-0.0-0.0-0.30","768","","arrowleft","","","","","","","","","","","","","key","arrowleft","16.664761904761793","720.2857142857143","476.2857142857143","arrowleft","true","../../test_img/15.png","自我","matching_task","生人","[""<img src=\""../../test_img/15.png\"" width=150 style=\""vertical-align:middle\"">---生人"",""<img src=\""../../test_img/22.png\"" width=150 style=\""vertical-align:middle\"">---自我"",""<img src=\""../../test_img/26.png\"" width=150 style=\""vertical-align:middle\"">---朋友""]","","",""
"","","","","","html-keyboard-response","171","493459","0.0-9.0-0.0-0.0-0.0-1.30","null","<span style='color:GreenYellow; font-size: 70px;'>正确! </span>","null","","","","","","","","","","","","","","","","","","","","","","","","","feedback_test","",""
"","","","","","psychophysics","172","495317","0.0-9.0-0.0-0.0-0.0-0.31","845","","arrowleft","","","","","","","","","","","","","key","arrowleft","16.66636363636353","720.2857142857143","476.2857142857143","arrowleft","true","../../test_img/26.png","生人","matching_task","朋友","[""<img src=\""../../test_img/15.png\"" width=150 style=\""vertical-align:middle\"">---生人"",""<img src=\""../../test_img/22.png\"" width=150 style=\""vertical-align:middle\"">---自我"",""<img src=\""../../test_img/26.png\"" width=150 style=\""vertical-align:middle\"">---朋友""]","","",""
"","","","","","html-keyboard-response","173","495830","0.0-9.0-0.0-0.0-0.0-1.31","null","<span style='color:GreenYellow; font-size: 70px;'>正确! </span>","null","","","","","","","","","","","","","","","","","","","","","","","","","feedback_test","",""
"","","","","","psychophysics","174","497712","0.0-9.0-0.0-0.0-0.0-0.32","874","","arrowleft","","","","","","","","","","","","","key","arrowleft","16.668468468468575","720.2857142857143","476.2857142857143","arrowleft","true","../../test_img/22.png","朋友","matching_task","自我","[""<img src=\""../../test_img/15.png\"" width=150 style=\""vertical-align:middle\"">---生人"",""<img src=\""../../test_img/22.png\"" width=150 style=\""vertical-align:middle\"">---自我"",""<img src=\""../../test_img/26.png\"" width=150 style=\""vertical-align:middle\"">---朋友""]","","",""
"","","","","","html-keyboard-response","175","498223","0.0-9.0-0.0-0.0-0.0-1.32","null","<span style='color:GreenYellow; font-size: 70px;'>正确! </span>","null","","","","","","","","","","","","","","","","","","","","","","","","","feedback_test","",""
"","","","","","psychophysics","176","500102","0.0-9.0-0.0-0.0-0.0-0.33","874","","arrowleft","","","","","","","","","","","","","key","arrowleft","16.666666666666668","720.2857142857143","476.2857142857143","arrowleft","true","../../test_img/15.png","朋友","matching_task","生人","[""<img src=\""../../test_img/15.png\"" width=150 style=\""vertical-align:middle\"">---生人"",""<img src=\""../../test_img/22.png\"" width=150 style=\""vertical-align:middle\"">---自我"",""<img src=\""../../test_img/26.png\"" width=150 style=\""vertical-align:middle\"">---朋友""]","","",""
"","","","","","html-keyboard-response","177","500608","0.0-9.0-0.0-0.0-0.0-1.33","null","<span style='color:GreenYellow; font-size: 70px;'>正确! </span>","null","","","","","","","","","","","","","","","","","","","","","","","","","feedback_test","",""
"","","","","","psychophysics","178","502332","0.0-9.0-0.0-0.0-0.0-0.34","711","","arrowright","","","","","","","","","","","","","key","arrowright","16.668627450980505","720.2857142857143","476.2857142857143","arrowright","true","../../test_img/22.png","自我","matching_task","自我","[""<img src=\""../../test_img/15.png\"" width=150 style=\""vertical-align:middle\"">---生人"",""<img src=\""../../test_img/22.png\"" width=150 style=\""vertical-align:middle\"">---自我"",""<img src=\""../../test_img/26.png\"" width=150 style=\""vertical-align:middle\"">---朋友""]","","",""
"","","","","","html-keyboard-response","179","502845","0.0-9.0-0.0-0.0-0.0-1.34","null","<span style='color:GreenYellow; font-size: 70px;'>正确! </span>","null","","","","","","","","","","","","","","","","","","","","","","","","","feedback_test","",""
"","","","","","psychophysics","180","504702","0.0-9.0-0.0-0.0-0.0-0.35","847","","arrowright","","","","","","","","","","","","","key","arrowright","16.66636363636353","720.2857142857143","476.2857142857143","arrowright","true","../../test_img/15.png","生人","matching_task","生人","[""<img src=\""../../test_img/15.png\"" width=150 style=\""vertical-align:middle\"">---生人"",""<img src=\""../../test_img/22.png\"" width=150 style=\""vertical-align:middle\"">---自我"",""<img src=\""../../test_img/26.png\"" width=150 style=\""vertical-align:middle\"">---朋友""]","","",""
"","","","","","html-keyboard-response","181","505218","0.0-9.0-0.0-0.0-0.0-1.35","null","<span style='color:GreenYellow; font-size: 70px;'>正确! </span>","null","","","","","","","","","","","","","","","","","","","","","","","","","feedback_test","",""
"","","","","","psychophysics","182","507088","0.0-9.0-0.0-0.0-0.0-0.36","866","","arrowleft","","","","","","","","","","","","","key","arrowleft","16.66636363636353","720.2857142857143","476.2857142857143","arrowleft","true","../../test_img/15.png","自我","matching_task","生人","[""<img src=\""../../test_img/15.png\"" width=150 style=\""vertical-align:middle\"">---生人"",""<img src=\""../../test_img/22.png\"" width=150 style=\""vertical-align:middle\"">---自我"",""<img src=\""../../test_img/26.png\"" width=150 style=\""vertical-align:middle\"">---朋友""]","","",""
"","","","","","html-keyboard-response","183","507599","0.0-9.0-0.0-0.0-0.0-1.36","null","<span style='color:GreenYellow; font-size: 70px;'>正确! </span>","null","","","","","","","","","","","","","","","","","","","","","","","","","feedback_test","",""
"","","","","","psychophysics","184","509739","0.0-9.0-0.0-0.0-0.0-0.37","1134","","arrowleft","","","","","","","","","","","","","key","arrowleft","16.66692913385836","720.2857142857143","476.2857142857143","arrowleft","true","../../test_img/22.png","生人","matching_task","自我","[""<img src=\""../../test_img/15.png\"" width=150 style=\""vertical-align:middle\"">---生人"",""<img src=\""../../test_img/22.png\"" width=150 style=\""vertical-align:middle\"">---自我"",""<img src=\""../../test_img/26.png\"" width=150 style=\""vertical-align:middle\"">---朋友""]","","",""
"","","","","","html-keyboard-response","185","510254","0.0-9.0-0.0-0.0-0.0-1.37","null","<span style='color:GreenYellow; font-size: 70px;'>正确! </span>","null","","","","","","","","","","","","","","","","","","","","","","","","","feedback_test","",""
"","","","","","psychophysics","186","512165","0.0-9.0-0.0-0.0-0.0-0.38","895","","arrowleft","","","","","","","","","","","","","key","arrowleft","16.66637168141634","720.2857142857143","476.2857142857143","arrowleft","true","../../test_img/22.png","朋友","matching_task","自我","[""<img src=\""../../test_img/15.png\"" width=150 style=\""vertical-align:middle\"">---生人"",""<img src=\""../../test_img/22.png\"" width=150 style=\""vertical-align:middle\"">---自我"",""<img src=\""../../test_img/26.png\"" width=150 style=\""vertical-align:middle\"">---朋友""]","","",""
"","","","","","html-keyboard-response","187","512674","0.0-9.0-0.0-0.0-0.0-1.38","null","<span style='color:GreenYellow; font-size: 70px;'>正确! </span>","null","","","","","","","","","","","","","","","","","","","","","","","","","feedback_test","",""
"","","","","","psychophysics","188","514478","0.0-9.0-0.0-0.0-0.0-0.39","801","","arrowright","","","","","","","","","","","","","key","arrowright","16.66542056074723","720.2857142857143","476.2857142857143","arrowright","true","../../test_img/26.png","朋友","matching_task","朋友","[""<img src=\""../../test_img/15.png\"" width=150 style=\""vertical-align:middle\"">---生人"",""<img src=\""../../test_img/22.png\"" width=150 style=\""vertical-align:middle\"">---自我"",""<img src=\""../../test_img/26.png\"" width=150 style=\""vertical-align:middle\"">---朋友""]","","",""
"","","","","","html-keyboard-response","189","514988","0.0-9.0-0.0-0.0-0.0-1.39","null","<span style='color:GreenYellow; font-size: 70px;'>正确! </span>","null","","","","","","","","","","","","","","","","","","","","","","","","","feedback_test","",""
"","","","","","psychophysics","190","516838","0.0-9.0-0.0-0.0-0.0-0.40","850","","arrowright","","","","","","","","","","","","","key","arrowright","16.664220183486453","720.2857142857143","476.2857142857143","arrowright","true","../../test_img/22.png","自我","matching_task","自我","[""<img src=\""../../test_img/15.png\"" width=150 style=\""vertical-align:middle\"">---生人"",""<img src=\""../../test_img/22.png\"" width=150 style=\""vertical-align:middle\"">---自我"",""<img src=\""../../test_img/26.png\"" width=150 style=\""vertical-align:middle\"">---朋友""]","","",""
"","","","","","html-keyboard-response","191","517344","0.0-9.0-0.0-0.0-0.0-1.40","null","<span style='color:GreenYellow; font-size: 70px;'>正确! </span>","null","","","","","","","","","","","","","","","","","","","","","","","","","feedback_test","",""
"","","","","","psychophysics","192","519277","0.0-9.0-0.0-0.0-0.0-0.41","922","","arrowright","","","","","","","","","","","","","key","arrowright","16.666956521738726","720.2857142857143","476.2857142857143","arrowright","true","../../test_img/15.png","生人","matching_task","生人","[""<img src=\""../../test_img/15.png\"" width=150 style=\""vertical-align:middle\"">---生人"",""<img src=\""../../test_img/22.png\"" width=150 style=\""vertical-align:middle\"">---自我"",""<img src=\""../../test_img/26.png\"" width=150 style=\""vertical-align:middle\"">---朋友""]","","",""
"","","","","","html-keyboard-response","193","519790","0.0-9.0-0.0-0.0-0.0-1.41","null","<span style='color:GreenYellow; font-size: 70px;'>正确! </span>","null","","","","","","","","","","","","","","","","","","","","","","","","","feedback_test","",""
"","","","","","psychophysics","194","521422","0.0-9.0-0.0-0.0-0.0-0.42","618","","arrowright","","","","","","","","","","","","","key","arrowright","16.66597938144306","720.2857142857143","476.2857142857143","arrowright","true","../../test_img/15.png","生人","matching_task","生人","[""<img src=\""../../test_img/15.png\"" width=150 style=\""vertical-align:middle\"">---生人"",""<img src=\""../../test_img/22.png\"" width=150 style=\""vertical-align:middle\"">---自我"",""<img src=\""../../test_img/26.png\"" width=150 style=\""vertical-align:middle\"">---朋友""]","","",""
"","","","","","html-keyboard-response","195","521928","0.0-9.0-0.0-0.0-0.0-1.42","null","<span style='color:GreenYellow; font-size: 70px;'>正确! </span>","null","","","","","","","","","","","","","","","","","","","","","","","","","feedback_test","",""
"","","","","","psychophysics","196","523722","0.0-9.0-0.0-0.0-0.0-0.43","790","","arrowleft","","","","","","","","","","","","","key","arrowleft","16.666355140186806","720.2857142857143","476.2857142857143","arrowleft","true","../../test_img/26.png","自我","matching_task","朋友","[""<img src=\""../../test_img/15.png\"" width=150 style=\""vertical-align:middle\"">---生人"",""<img src=\""../../test_img/22.png\"" width=150 style=\""vertical-align:middle\"">---自我"",""<img src=\""../../test_img/26.png\"" width=150 style=\""vertical-align:middle\"">---朋友""]","","",""
"","","","","","html-keyboard-response","197","524229","0.0-9.0-0.0-0.0-0.0-1.43","null","<span style='color:GreenYellow; font-size: 70px;'>正确! </span>","null","","","","","","","","","","","","","","","","","","","","","","","","","feedback_test","",""
"","","","","","psychophysics","198","526020","0.0-9.0-0.0-0.0-0.0-0.44","778","","arrowright","","","","","","","","","","","","","key","arrowright","16.666037735848835","720.2857142857143","476.2857142857143","arrowright","true","../../test_img/26.png","朋友","matching_task","朋友","[""<img src=\""../../test_img/15.png\"" width=150 style=\""vertical-align:middle\"">---生人"",""<img src=\""../../test_img/22.png\"" width=150 style=\""vertical-align:middle\"">---自我"",""<img src=\""../../test_img/26.png\"" width=150 style=\""vertical-align:middle\"">---朋友""]","","",""
"","","","","","html-keyboard-response","199","526527","0.0-9.0-0.0-0.0-0.0-1.44","null","<span style='color:GreenYellow; font-size: 70px;'>正确! </span>","null","","","","","","","","","","","","","","","","","","","","","","","","","feedback_test","",""
"","","","","","psychophysics","200","528622","0.0-9.0-0.0-0.0-0.0-0.45","1084","","arrowright","","","","","","","","","","","","","key","arrowright","16.666400000000372","720.2857142857143","476.2857142857143","arrowright","true","../../test_img/22.png","自我","matching_task","自我","[""<img src=\""../../test_img/15.png\"" width=150 style=\""vertical-align:middle\"">---生人"",""<img src=\""../../test_img/22.png\"" width=150 style=\""vertical-align:middle\"">---自我"",""<img src=\""../../test_img/26.png\"" width=150 style=\""vertical-align:middle\"">---朋友""]","","",""
"","","","","","html-keyboard-response","201","529136","0.0-9.0-0.0-0.0-0.0-1.45","null","<span style='color:GreenYellow; font-size: 70px;'>正确! </span>","null","","","","","","","","","","","","","","","","","","","","","","","","","feedback_test","",""
"","","","","","psychophysics","202","531042","0.0-9.0-0.0-0.0-0.0-0.46","904","","arrowleft","","","","","","","","","","","","","key","arrowleft","16.665486725663303","720.2857142857143","476.2857142857143","arrowleft","true","../../test_img/15.png","朋友","matching_task","生人","[""<img src=\""../../test_img/15.png\"" width=150 style=\""vertical-align:middle\"">---生人"",""<img src=\""../../test_img/22.png\"" width=150 style=\""vertical-align:middle\"">---自我"",""<img src=\""../../test_img/26.png\"" width=150 style=\""vertical-align:middle\"">---朋友""]","","",""
"","","","","","html-keyboard-response","203","531552","0.0-9.0-0.0-0.0-0.0-1.46","null","<span style='color:GreenYellow; font-size: 70px;'>正确! </span>","null","","","","","","","","","","","","","","","","","","","","","","","","","feedback_test","",""
"","","","","","psychophysics","204","533350","0.0-9.0-0.0-0.0-0.0-0.47","795","","arrowleft","","","","","","","","","","","","","key","arrowleft","16.666037735849937","720.2857142857143","476.2857142857143","arrowleft","true","../../test_img/26.png","生人","matching_task","朋友","[""<img src=\""../../test_img/15.png\"" width=150 style=\""vertical-align:middle\"">---生人"",""<img src=\""../../test_img/22.png\"" width=150 style=\""vertical-align:middle\"">---自我"",""<img src=\""../../test_img/26.png\"" width=150 style=\""vertical-align:middle\"">---朋友""]","","",""
"","","","","","html-keyboard-response","205","533858","0.0-9.0-0.0-0.0-0.0-1.47","null","<span style='color:GreenYellow; font-size: 70px;'>正确! </span>","null","","","","","","","","","","","","","","","","","","","","","","","","","feedback_test","",""
"","","","","","psychophysics","206","535740","0.0-9.0-0.0-0.0-0.0-0.48","865","","arrowright","","","","","","","","","","","","","key","arrowright","16.665178571428573","720.2857142857143","476.2857142857143","arrowright","true","../../test_img/26.png","朋友","matching_task","朋友","[""<img src=\""../../test_img/15.png\"" width=150 style=\""vertical-align:middle\"">---生人"",""<img src=\""../../test_img/22.png\"" width=150 style=\""vertical-align:middle\"">---自我"",""<img src=\""../../test_img/26.png\"" width=150 style=\""vertical-align:middle\"">---朋友""]","","",""
"","","","","","html-keyboard-response","207","536244","0.0-9.0-0.0-0.0-0.0-1.48","null","<span style='color:GreenYellow; font-size: 70px;'>正确! </span>","null","","","","","","","","","","","","","","","","","","","","","","","","","feedback_test","",""
"","","","","","psychophysics","208","538347","0.0-9.0-0.0-0.0-0.0-0.49","1092","","arrowleft","","","","","","","","","","","","","key","arrowleft","16.666400000000372","720.2857142857143","476.2857142857143","arrowleft","true","../../test_img/26.png","生人","matching_task","朋友","[""<img src=\""../../test_img/15.png\"" width=150 style=\""vertical-align:middle\"">---生人"",""<img src=\""../../test_img/22.png\"" width=150 style=\""vertical-align:middle\"">---自我"",""<img src=\""../../test_img/26.png\"" width=150 style=\""vertical-align:middle\"">---朋友""]","","",""
"","","","","","html-keyboard-response","209","538848","0.0-9.0-0.0-0.0-0.0-1.49","null","<span style='color:GreenYellow; font-size: 70px;'>正确! </span>","null","","","","","","","","","","","","","","","","","","","","","","","","","feedback_test","",""
"","","","","","psychophysics","210","541176","0.0-9.0-0.0-0.0-0.0-0.50","1321","","arrowleft","","","","","","","","","","","","","key","arrowleft","16.665942028985675","720.2857142857143","476.2857142857143","arrowright","false","../../test_img/26.png","朋友","matching_task","朋友","[""<img src=\""../../test_img/15.png\"" width=150 style=\""vertical-align:middle\"">---生人"",""<img src=\""../../test_img/22.png\"" width=150 style=\""vertical-align:middle\"">---自我"",""<img src=\""../../test_img/26.png\"" width=150 style=\""vertical-align:middle\"">---朋友""]","","",""
"","","","","","html-keyboard-response","211","541692","0.0-9.0-0.0-0.0-0.0-1.50","null","<span style='color:red; font-size: 70px;'>错误! </span>","null","","","","","","","","","","","","","","","","","","","","","","","","","feedback_test","",""
"","","","","","psychophysics","212","543593","0.0-9.0-0.0-0.0-0.0-0.51","890","","arrowleft","","","","","","","","","","","","","key","arrowleft","16.66637168141531","720.2857142857143","476.2857142857143","arrowleft","true","../../test_img/26.png","自我","matching_task","朋友","[""<img src=\""../../test_img/15.png\"" width=150 style=\""vertical-align:middle\"">---生人"",""<img src=\""../../test_img/22.png\"" width=150 style=\""vertical-align:middle\"">---自我"",""<img src=\""../../test_img/26.png\"" width=150 style=\""vertical-align:middle\"">---朋友""]","","",""
"","","","","","html-keyboard-response","213","544094","0.0-9.0-0.0-0.0-0.0-1.51","null","<span style='color:GreenYellow; font-size: 70px;'>正确! </span>","null","","","","","","","","","","","","","","","","","","","","","","","","","feedback_test","",""
"","","","","","psychophysics","214","546208","0.0-9.0-0.0-0.0-0.0-0.52","1103","","arrowleft","","","","","","","","","","","","","key","arrowleft","16.6658730158732","720.2857142857143","476.2857142857143","arrowleft","true","../../test_img/15.png","自我","matching_task","生人","[""<img src=\""../../test_img/15.png\"" width=150 style=\""vertical-align:middle\"">---生人"",""<img src=\""../../test_img/22.png\"" width=150 style=\""vertical-align:middle\"">---自我"",""<img src=\""../../test_img/26.png\"" width=150 style=\""vertical-align:middle\"">---朋友""]","","",""
"","","","","","html-keyboard-response","215","546716","0.0-9.0-0.0-0.0-0.0-1.52","null","<span style='color:GreenYellow; font-size: 70px;'>正确! </span>","null","","","","","","","","","","","","","","","","","","","","","","","","","feedback_test","",""
"","","","","","psychophysics","216","548579","0.0-9.0-0.0-0.0-0.0-0.53","858","","arrowleft","","","","","","","","","","","","","key","arrowleft","16.66636363636406","720.2857142857143","476.2857142857143","arrowleft","true","../../test_img/22.png","生人","matching_task","自我","[""<img src=\""../../test_img/15.png\"" width=150 style=\""vertical-align:middle\"">---生人"",""<img src=\""../../test_img/22.png\"" width=150 style=\""vertical-align:middle\"">---自我"",""<img src=\""../../test_img/26.png\"" width=150 style=\""vertical-align:middle\"">---朋友""]","","",""
"","","","","","html-keyboard-response","217","549090","0.0-9.0-0.0-0.0-0.0-1.53","null","<span style='color:GreenYellow; font-size: 70px;'>正确! </span>","null","","","","","","","","","","","","","","","","","","","","","","","","","feedback_test","",""
"","","","","","psychophysics","218","551020","0.0-9.0-0.0-0.0-0.0-0.54","927","","arrowleft","","","","","","","","","","","","","key","arrowleft","16.666666666666668","720.2857142857143","476.2857142857143","arrowleft","true","../../test_img/22.png","朋友","matching_task","自我","[""<img src=\""../../test_img/15.png\"" width=150 style=\""vertical-align:middle\"">---生人"",""<img src=\""../../test_img/22.png\"" width=150 style=\""vertical-align:middle\"">---自我"",""<img src=\""../../test_img/26.png\"" width=150 style=\""vertical-align:middle\"">---朋友""]","","",""
"","","","","","html-keyboard-response","219","551532","0.0-9.0-0.0-0.0-0.0-1.54","null","<span style='color:GreenYellow; font-size: 70px;'>正确! </span>","null","","","","","","","","","","","","","","","","","","","","","","","","","feedback_test","",""
"","","","","","psychophysics","220","553443","0.0-9.0-0.0-0.0-0.0-0.55","905","","arrowright","","","","","","","","","","","","","key","arrowright","16.667256637168347","720.2857142857143","476.2857142857143","arrowright","true","../../test_img/15.png","生人","matching_task","生人","[""<img src=\""../../test_img/15.png\"" width=150 style=\""vertical-align:middle\"">---生人"",""<img src=\""../../test_img/22.png\"" width=150 style=\""vertical-align:middle\"">---自我"",""<img src=\""../../test_img/26.png\"" width=150 style=\""vertical-align:middle\"">---朋友""]","","",""
"","","","","","html-keyboard-response","221","553951","0.0-9.0-0.0-0.0-0.0-1.55","null","<span style='color:GreenYellow; font-size: 70px;'>正确! </span>","null","","","","","","","","","","","","","","","","","","","","","","","","","feedback_test","",""
"","","","","","psychophysics","222","556091","0.0-9.0-0.0-0.0-0.0-0.56","1137","","arrowright","","","","","","","","","","","","","key","arrowright","16.665354330708663","720.2857142857143","476.2857142857143","arrowright","true","../../test_img/22.png","自我","matching_task","自我","[""<img src=\""../../test_img/15.png\"" width=150 style=\""vertical-align:middle\"">---生人"",""<img src=\""../../test_img/22.png\"" width=150 style=\""vertical-align:middle\"">---自我"",""<img src=\""../../test_img/26.png\"" width=150 style=\""vertical-align:middle\"">---朋友""]","","",""
"","","","","","html-keyboard-response","223","556599","0.0-9.0-0.0-0.0-0.0-1.56","null","<span style='color:GreenYellow; font-size: 70px;'>正确! </span>","null","","","","","","","","","","","","","","","","","","","","","","","","","feedback_test","",""
"","","","","","psychophysics","224","558325","0.0-9.0-0.0-0.0-0.0-0.57","725","","arrowleft","","","","","","","","","","","","","key","arrowleft","16.666019417475503","720.2857142857143","476.2857142857143","arrowleft","true","../../test_img/15.png","朋友","matching_task","生人","[""<img src=\""../../test_img/15.png\"" width=150 style=\""vertical-align:middle\"">---生人"",""<img src=\""../../test_img/22.png\"" width=150 style=\""vertical-align:middle\"">---自我"",""<img src=\""../../test_img/26.png\"" width=150 style=\""vertical-align:middle\"">---朋友""]","","",""
"","","","","","html-keyboard-response","225","558836","0.0-9.0-0.0-0.0-0.0-1.57","null","<span style='color:GreenYellow; font-size: 70px;'>正确! </span>","null","","","","","","","","","","","","","","","","","","","","","","","","","feedback_test","",""
"","","","","","psychophysics","226","560775","0.0-9.0-0.0-0.0-0.0-0.58","937","","arrowleft","","","","","","","","","","","","","key","arrowleft","16.66521739130435","720.2857142857143","476.2857142857143","arrowright","false","../../test_img/22.png","自我","matching_task","自我","[""<img src=\""../../test_img/15.png\"" width=150 style=\""vertical-align:middle\"">---生人"",""<img src=\""../../test_img/22.png\"" width=150 style=\""vertical-align:middle\"">---自我"",""<img src=\""../../test_img/26.png\"" width=150 style=\""vertical-align:middle\"">---朋友""]","","",""
"","","","","","html-keyboard-response","227","561285","0.0-9.0-0.0-0.0-0.0-1.58","null","<span style='color:red; font-size: 70px;'>错误! </span>","null","","","","","","","","","","","","","","","","","","","","","","","","","feedback_test","",""
"","","","","","psychophysics","228","562988","0.0-9.0-0.0-0.0-0.0-0.59","701","","arrowright","","","","","","","","","","","","","key","arrowright","16.665346534653004","720.2857142857143","476.2857142857143","arrowright","true","../../test_img/15.png","生人","matching_task","生人","[""<img src=\""../../test_img/15.png\"" width=150 style=\""vertical-align:middle\"">---生人"",""<img src=\""../../test_img/22.png\"" width=150 style=\""vertical-align:middle\"">---自我"",""<img src=\""../../test_img/26.png\"" width=150 style=\""vertical-align:middle\"">---朋友""]","","",""
"","","","","","html-keyboard-response","229","563490","0.0-9.0-0.0-0.0-0.0-1.59","null","<span style='color:GreenYellow; font-size: 70px;'>正确! </span>","null","","","","","","","","","","","","","","","","","","","","","","","","","feedback_test","",""
"","","","","","psychophysics","230","565236","0.0-9.0-0.0-0.0-0.0-0.60","743","","arrowright","","","","","","","","","","","","","key","arrowright","16.666990291261683","720.2857142857143","476.2857142857143","arrowright","true","../../test_img/26.png","朋友","matching_task","朋友","[""<img src=\""../../test_img/15.png\"" width=150 style=\""vertical-align:middle\"">---生人"",""<img src=\""../../test_img/22.png\"" width=150 style=\""vertical-align:middle\"">---自我"",""<img src=\""../../test_img/26.png\"" width=150 style=\""vertical-align:middle\"">---朋友""]","","",""
"","","","","","html-keyboard-response","231","565740","0.0-9.0-0.0-0.0-0.0-1.60","null","<span style='color:GreenYellow; font-size: 70px;'>正确! </span>","null","","","","","","","","","","","","","","","","","","","","","","","","","feedback_test","",""
"","","","","","psychophysics","232","567485","0.0-9.0-0.0-0.0-0.0-0.61","730","","arrowleft","","","","","","","","","","","","","key","arrowleft","16.666019417475503","720.2857142857143","476.2857142857143","arrowleft","true","../../test_img/22.png","朋友","matching_task","自我","[""<img src=\""../../test_img/15.png\"" width=150 style=\""vertical-align:middle\"">---生人"",""<img src=\""../../test_img/22.png\"" width=150 style=\""vertical-align:middle\"">---自我"",""<img src=\""../../test_img/26.png\"" width=150 style=\""vertical-align:middle\"">---朋友""]","","",""
"","","","","","html-keyboard-response","233","567986","0.0-9.0-0.0-0.0-0.0-1.61","null","<span style='color:GreenYellow; font-size: 70px;'>正确! </span>","null","","","","","","","","","","","","","","","","","","","","","","","","","feedback_test","",""
"","","","","","psychophysics","234","569716","0.0-9.0-0.0-0.0-0.0-0.62","728","","arrowright","","","","","","","","","","","","","key","arrowright","16.655882352941404","720.2857142857143","476.2857142857143","arrowright","true","../../test_img/15.png","生人","matching_task","生人","[""<img src=\""../../test_img/15.png\"" width=150 style=\""vertical-align:middle\"">---生人"",""<img src=\""../../test_img/22.png\"" width=150 style=\""vertical-align:middle\"">---自我"",""<img src=\""../../test_img/26.png\"" width=150 style=\""vertical-align:middle\"">---朋友""]","","",""
"","","","","","html-keyboard-response","235","570223","0.0-9.0-0.0-0.0-0.0-1.62","null","<span style='color:GreenYellow; font-size: 70px;'>正确! </span>","null","","","","","","","","","","","","","","","","","","","","","","","","","feedback_test","",""
"","","","","","psychophysics","236","571831","0.0-9.0-0.0-0.0-0.0-0.63","596","","arrowright","","","","","","","","","","","","","key","arrowright","16.666315789474176","720.2857142857143","476.2857142857143","arrowright","true","../../test_img/26.png","朋友","matching_task","朋友","[""<img src=\""../../test_img/15.png\"" width=150 style=\""vertical-align:middle\"">---生人"",""<img src=\""../../test_img/22.png\"" width=150 style=\""vertical-align:middle\"">---自我"",""<img src=\""../../test_img/26.png\"" width=150 style=\""vertical-align:middle\"">---朋友""]","","",""
"","","","","","html-keyboard-response","237","572340","0.0-9.0-0.0-0.0-0.0-1.63","null","<span style='color:GreenYellow; font-size: 70px;'>正确! </span>","null","","","","","","","","","","","","","","","","","","","","","","","","","feedback_test","",""
"","","","","","psychophysics","238","574141","0.0-9.0-0.0-0.0-0.0-0.64","791","","arrowright","","","","","","","","","","","","","key","arrowright","16.6672897196253","720.2857142857143","476.2857142857143","arrowright","true","../../test_img/15.png","生人","matching_task","生人","[""<img src=\""../../test_img/15.png\"" width=150 style=\""vertical-align:middle\"">---生人"",""<img src=\""../../test_img/22.png\"" width=150 style=\""vertical-align:middle\"">---自我"",""<img src=\""../../test_img/26.png\"" width=150 style=\""vertical-align:middle\"">---朋友""]","","",""
"","","","","","html-keyboard-response","239","574643","0.0-9.0-0.0-0.0-0.0-1.64","null","<span style='color:GreenYellow; font-size: 70px;'>正确! </span>","null","","","","","","","","","","","","","","","","","","","","","","","","","feedback_test","",""
"","","","","","psychophysics","240","576575","0.0-9.0-0.0-0.0-0.0-0.65","920","","arrowleft","","","","","","","","","","","","","key","arrowleft","16.666956521738726","720.2857142857143","476.2857142857143","arrowleft","true","../../test_img/15.png","自我","matching_task","生人","[""<img src=\""../../test_img/15.png\"" width=150 style=\""vertical-align:middle\"">---生人"",""<img src=\""../../test_img/22.png\"" width=150 style=\""vertical-align:middle\"">---自我"",""<img src=\""../../test_img/26.png\"" width=150 style=\""vertical-align:middle\"">---朋友""]","","",""
"","","","","","html-keyboard-response","241","577087","0.0-9.0-0.0-0.0-0.0-1.65","null","<span style='color:GreenYellow; font-size: 70px;'>正确! </span>","null","","","","","","","","","","","","","","","","","","","","","","","","","feedback_test","",""
"","","","","","psychophysics","242","578885","0.0-9.0-0.0-0.0-0.0-0.66","797","","arrowleft","","","","","","","","","","","","","key","arrowleft","16.652830188678806","720.2857142857143","476.2857142857143","arrowleft","true","../../test_img/26.png","生人","matching_task","朋友","[""<img src=\""../../test_img/15.png\"" width=150 style=\""vertical-align:middle\"">---生人"",""<img src=\""../../test_img/22.png\"" width=150 style=\""vertical-align:middle\"">---自我"",""<img src=\""../../test_img/26.png\"" width=150 style=\""vertical-align:middle\"">---朋友""]","","",""
"","","","","","html-keyboard-response","243","579393","0.0-9.0-0.0-0.0-0.0-1.66","null","<span style='color:GreenYellow; font-size: 70px;'>正确! </span>","null","","","","","","","","","","","","","","","","","","","","","","","","","feedback_test","",""
"","","","","","psychophysics","244","581248","0.0-9.0-0.0-0.0-0.0-0.67","844","","arrowleft","","","","","","","","","","","","","key","arrowleft","16.668181818181818","720.2857142857143","476.2857142857143","arrowright","false","../../test_img/22.png","自我","matching_task","自我","[""<img src=\""../../test_img/15.png\"" width=150 style=\""vertical-align:middle\"">---生人"",""<img src=\""../../test_img/22.png\"" width=150 style=\""vertical-align:middle\"">---自我"",""<img src=\""../../test_img/26.png\"" width=150 style=\""vertical-align:middle\"">---朋友""]","","",""
"","","","","","html-keyboard-response","245","581757","0.0-9.0-0.0-0.0-0.0-1.67","null","<span style='color:red; font-size: 70px;'>错误! </span>","null","","","","","","","","","","","","","","","","","","","","","","","","","feedback_test","",""
"","","","","","psychophysics","246","583392","0.0-9.0-0.0-0.0-0.0-0.68","622","","arrowleft","","","","","","","","","","","","","key","arrowleft","16.66597938144306","720.2857142857143","476.2857142857143","arrowleft","true","../../test_img/26.png","自我","matching_task","朋友","[""<img src=\""../../test_img/15.png\"" width=150 style=\""vertical-align:middle\"">---生人"",""<img src=\""../../test_img/22.png\"" width=150 style=\""vertical-align:middle\"">---自我"",""<img src=\""../../test_img/26.png\"" width=150 style=\""vertical-align:middle\"">---朋友""]","","",""
"","","","","","html-keyboard-response","247","583895","0.0-9.0-0.0-0.0-0.0-1.68","null","<span style='color:GreenYellow; font-size: 70px;'>正确! </span>","null","","","","","","","","","","","","","","","","","","","","","","","","","feedback_test","",""
"","","","","","psychophysics","248","585640","0.0-9.0-0.0-0.0-0.0-0.69","736","","arrowright","","","","","","","","","","","","","key","arrowright","16.665384615384166","720.2857142857143","476.2857142857143","arrowright","true","../../test_img/22.png","自我","matching_task","自我","[""<img src=\""../../test_img/15.png\"" width=150 style=\""vertical-align:middle\"">---生人"",""<img src=\""../../test_img/22.png\"" width=150 style=\""vertical-align:middle\"">---自我"",""<img src=\""../../test_img/26.png\"" width=150 style=\""vertical-align:middle\"">---朋友""]","","",""
