"success","timeout","failed_images","failed_audio","failed_video","trial_type","trial_index","time_elapsed","internal_node_id","rt","stimulus","response","value","item_width_mm","item_height_mm","item_width_px","px2mm","view_dist_mm","item_width_deg","px2deg","scale_factor","win_width_deg","win_height_deg","view_history","response_type","key_press","avg_frame_time","center_x","center_y","correct_response","correct","Image","word","condition","shape","association","screen_id","LeftLable","RightLable"
"true","false","[]","[]","[]","preload","0","1020","0.0-0.0","","","","","","","","","","","","","","","","","","","","","","","","","","","","","",""
"","","","","","html-keyboard-response","1","45224","0.0-1.0","44203","
     <p>您好，欢迎参加本次实验。</p>
     <p>为充分保障您的权利，请确保您已经知晓并同意《参与实验同意书》以及《数据公开知情同意书》。</p>
     <p>如果您未见过上述内容，请咨询实验员。</p>
     <p>如果您选择继续实验，则表示您已经清楚两份知情同意书的内容并同意。</p>
     <p> <div style = ""color: green""><按任意键至下页></div> </p>
     "," ","","","","","","","","","","","","","","","","","","","","","","","","","","",""
"","","","","","html-keyboard-response","2","46880","0.0-2.0","1656","
     <p>本实验首先需要您填写一些基本个人信息。</p>
     <p> <div style = ""color: green""><按任意键至下页></div></p>
     "," ","","","","","","","","","","","","","","","","","","","","","","","","","","",""
"","","","","","call-function","3","46881","0.0-3.0-0.0","","","","","","","","","","","","","","","","","","","","","","","","","","","","","",""
"","","","","","survey-html-form","4","51484","0.0-3.0-1.0","4601","","{""Q0"":""08""}","","","","","","","","","","","","","","","","","","","","","","","","","","",""
"","","","","","html-button-response","5","52834","0.0-3.0-2.0","1347","<p style = 'color : white'>您的性别</p>","1","","","","","","","","","","","","","","","","","","","","","","","","","","",""
"","","","","","survey-html-form","6","59022","0.0-3.0-3.0","6186","","{""Q0"":""2002""}","","","","","","","","","","","","","","","","","","","","","","","","","","",""
"","","","","","survey-html-form","7","62075","0.0-3.0-4.0","3051","","{""Q0"":""6""}","","","","","","","","","","","","","","","","","","","","","","","","","","",""
"","","","","","virtual-chinrest","8","202728","0.0-4.0","140651","","","","85.6","53.98","425.0540918495702","4.962403353874837","575.87","8.501081836991405","50","0.9692883985829498","33.98","16","","","","","","","","","","","","","","","",""
"true","","","","","fullscreen","9","205058","0.0-5.0","","","","","","","","","","","","","","","","","","","","","","","","","","","","","",""
"","","","","","instructions","10","384736","0.0-6.0","179667","","","","","","","","","","","","","","[{""page_index"":0,""viewing_time"":9029},{""page_index"":1,""viewing_time"":122007},{""page_index"":2,""viewing_time"":44126},{""page_index"":3,""viewing_time"":2329},{""page_index"":4,""viewing_time"":2176}]","","","","","","","","","","","","","","",""
"","","","","","psychophysics","11","387270","0.0-7.0-0.0-0.0","null","","null","","","","","","","","","","","","","key","null","4.180267558528409","853.3333333333334","476","arrowright","false","../../test_img/12.png","自我","prac_matching_task","朋友","[""<img src=\""../../test_img/25.png\"" width=150 style=\""vertical-align:middle\"">---生人"",""<img src=\""../../test_img/19.png\"" width=150 style=\""vertical-align:middle\"">---自我"",""<img src=\""../../test_img/12.png\"" width=150 style=\""vertical-align:middle\"">---朋友""]","","",""
"","","","","","html-keyboard-response","12","387583","0.0-7.0-0.0-1.0","null","<span class='add_' style='color:yellow; font-size: 70px;'> 太慢! </span>","null","","","","","","","","","","","","","","","","","","","","","","","","","feedback_test","",""
"","","","","","psychophysics","13","389321","0.0-7.0-0.0-0.1","722","","arrowleft","","","","","","","","","","","","","key","arrowleft","4.166584766584881","853.3333333333334","476","arrowright","false","../../test_img/19.png","朋友","prac_matching_task","自我","[""<img src=\""../../test_img/25.png\"" width=150 style=\""vertical-align:middle\"">---生人"",""<img src=\""../../test_img/19.png\"" width=150 style=\""vertical-align:middle\"">---自我"",""<img src=\""../../test_img/12.png\"" width=150 style=\""vertical-align:middle\"">---朋友""]","","",""
"","","","","","html-keyboard-response","14","389623","0.0-7.0-0.0-1.1","null","<span style='color:red; font-size: 70px;'>错误! </span>","null","","","","","","","","","","","","","","","","","","","","","","","","","feedback_test","",""
"","","","","","psychophysics","15","391138","0.0-7.0-0.0-0.2","510","","arrowright","","","","","","","","","","","","","key","arrowright","4.166384180790862","853.3333333333334","476","arrowright","true","../../test_img/12.png","生人","prac_matching_task","朋友","[""<img src=\""../../test_img/25.png\"" width=150 style=\""vertical-align:middle\"">---生人"",""<img src=\""../../test_img/19.png\"" width=150 style=\""vertical-align:middle\"">---自我"",""<img src=\""../../test_img/12.png\"" width=150 style=\""vertical-align:middle\"">---朋友""]","","",""
"","","","","","html-keyboard-response","16","391444","0.0-7.0-0.0-1.2","null","<span style='color:GreenYellow; font-size: 70px;'>正确! </span>","null","","","","","","","","","","","","","","","","","","","","","","","","","feedback_test","",""
"","","","","","psychophysics","17","392788","0.0-7.0-0.0-0.3","339","","arrowright","","","","","","","","","","","","","key","arrowright","4.166025641025604","853.3333333333334","476","arrowleft","false","../../test_img/12.png","朋友","prac_matching_task","朋友","[""<img src=\""../../test_img/25.png\"" width=150 style=\""vertical-align:middle\"">---生人"",""<img src=\""../../test_img/19.png\"" width=150 style=\""vertical-align:middle\"">---自我"",""<img src=\""../../test_img/12.png\"" width=150 style=\""vertical-align:middle\"">---朋友""]","","",""
"","","","","","html-keyboard-response","18","393093","0.0-7.0-0.0-1.3","null","<span style='color:red; font-size: 70px;'>错误! </span>","null","","","","","","","","","","","","","","","","","","","","","","","","","feedback_test","",""
"","","","","","psychophysics","19","394359","0.0-7.0-0.0-0.4","264","","arrowleft","","","","","","","","","","","","","key","arrowleft","4.166552901023851","853.3333333333334","476","arrowleft","true","../../test_img/25.png","生人","prac_matching_task","生人","[""<img src=\""../../test_img/25.png\"" width=150 style=\""vertical-align:middle\"">---生人"",""<img src=\""../../test_img/19.png\"" width=150 style=\""vertical-align:middle\"">---自我"",""<img src=\""../../test_img/12.png\"" width=150 style=\""vertical-align:middle\"">---朋友""]","","",""
"","","","","","html-keyboard-response","20","394666","0.0-7.0-0.0-1.4","null","<span style='color:GreenYellow; font-size: 70px;'>正确! </span>","null","","","","","","","","","","","","","","","","","","","","","","","","","feedback_test","",""
"","","","","","psychophysics","21","396012","0.0-7.0-0.0-0.5","342","","arrowleft","","","","","","","","","","","","","key","arrowleft","4.166560509554103","853.3333333333334","476","arrowleft","true","../../test_img/25.png","生人","prac_matching_task","生人","[""<img src=\""../../test_img/25.png\"" width=150 style=\""vertical-align:middle\"">---生人"",""<img src=\""../../test_img/19.png\"" width=150 style=\""vertical-align:middle\"">---自我"",""<img src=\""../../test_img/12.png\"" width=150 style=\""vertical-align:middle\"">---朋友""]","","",""
"","","","","","html-keyboard-response","22","396319","0.0-7.0-0.0-1.5","null","<span style='color:GreenYellow; font-size: 70px;'>正确! </span>","null","","","","","","","","","","","","","","","","","","","","","","","","","feedback_test","",""
"","","","","","psychophysics","23","397586","0.0-7.0-0.0-0.6","263","","arrowleft","","","","","","","","","","","","","key","arrowleft","4.166554054054015","853.3333333333334","476","arrowleft","true","../../test_img/19.png","自我","prac_matching_task","自我","[""<img src=\""../../test_img/25.png\"" width=150 style=\""vertical-align:middle\"">---生人"",""<img src=\""../../test_img/19.png\"" width=150 style=\""vertical-align:middle\"">---自我"",""<img src=\""../../test_img/12.png\"" width=150 style=\""vertical-align:middle\"">---朋友""]","","",""
"","","","","","html-keyboard-response","24","397888","0.0-7.0-0.0-1.6","null","<span style='color:GreenYellow; font-size: 70px;'>正确! </span>","null","","","","","","","","","","","","","","","","","","","","","","","","","feedback_test","",""
"","","","","","psychophysics","25","399253","0.0-7.0-0.0-0.7","363","","arrowleft","","","","","","","","","","","","","key","arrowleft","4.166037735849203","853.3333333333334","476","arrowleft","true","../../test_img/19.png","自我","prac_matching_task","自我","[""<img src=\""../../test_img/25.png\"" width=150 style=\""vertical-align:middle\"">---生人"",""<img src=\""../../test_img/19.png\"" width=150 style=\""vertical-align:middle\"">---自我"",""<img src=\""../../test_img/12.png\"" width=150 style=\""vertical-align:middle\"">---朋友""]","","",""
"","","","","","html-keyboard-response","26","399568","0.0-7.0-0.0-1.7","null","<span style='color:GreenYellow; font-size: 70px;'>正确! </span>","null","","","","","","","","","","","","","","","","","","","","","","","","","feedback_test","",""
"","","","","","psychophysics","27","400931","0.0-7.0-0.0-0.8","359","","arrowleft","","","","","","","","","","","","","key","arrowleft","4.166666666666667","853.3333333333334","476","arrowright","false","../../test_img/25.png","朋友","prac_matching_task","生人","[""<img src=\""../../test_img/25.png\"" width=150 style=\""vertical-align:middle\"">---生人"",""<img src=\""../../test_img/19.png\"" width=150 style=\""vertical-align:middle\"">---自我"",""<img src=\""../../test_img/12.png\"" width=150 style=\""vertical-align:middle\"">---朋友""]","","",""
"","","","","","html-keyboard-response","28","401240","0.0-7.0-0.0-1.8","null","<span style='color:red; font-size: 70px;'>错误! </span>","null","","","","","","","","","","","","","","","","","","","","","","","","","feedback_test","",""
"","","","","","psychophysics","29","402512","0.0-7.0-0.0-0.9","269","","arrowleft","","","","","","","","","","","","","key","arrowleft","4.1662116040956025","853.3333333333334","476","arrowleft","true","../../test_img/12.png","朋友","prac_matching_task","朋友","[""<img src=\""../../test_img/25.png\"" width=150 style=\""vertical-align:middle\"">---生人"",""<img src=\""../../test_img/19.png\"" width=150 style=\""vertical-align:middle\"">---自我"",""<img src=\""../../test_img/12.png\"" width=150 style=\""vertical-align:middle\"">---朋友""]","","",""
"","","","","","html-keyboard-response","30","402822","0.0-7.0-0.0-1.9","null","<span style='color:GreenYellow; font-size: 70px;'>正确! </span>","null","","","","","","","","","","","","","","","","","","","","","","","","","feedback_test","",""
"","","","","","psychophysics","31","404087","0.0-7.0-0.0-0.10","261","","arrowleft","","","","","","","","","","","","","key","arrowleft","4.167006802721009","853.3333333333334","476","arrowright","false","../../test_img/25.png","自我","prac_matching_task","生人","[""<img src=\""../../test_img/25.png\"" width=150 style=\""vertical-align:middle\"">---生人"",""<img src=\""../../test_img/19.png\"" width=150 style=\""vertical-align:middle\"">---自我"",""<img src=\""../../test_img/12.png\"" width=150 style=\""vertical-align:middle\"">---朋友""]","","",""
"","","","","","html-keyboard-response","32","404395","0.0-7.0-0.0-1.10","null","<span style='color:red; font-size: 70px;'>错误! </span>","null","","","","","","","","","","","","","","","","","","","","","","","","","feedback_test","",""
"","","","","","psychophysics","33","405638","0.0-7.0-0.0-0.11","240","","arrowright","","","","","","","","","","","","","key","arrowright","4.167013888888808","853.3333333333334","476","arrowright","true","../../test_img/19.png","生人","prac_matching_task","自我","[""<img src=\""../../test_img/25.png\"" width=150 style=\""vertical-align:middle\"">---生人"",""<img src=\""../../test_img/19.png\"" width=150 style=\""vertical-align:middle\"">---自我"",""<img src=\""../../test_img/12.png\"" width=150 style=\""vertical-align:middle\"">---朋友""]","","",""
"","","","","","html-keyboard-response","34","405951","0.0-7.0-0.0-1.11","null","<span style='color:GreenYellow; font-size: 70px;'>正确! </span>","null","","","","","","","","","","","","","","","","","","","","","","","","","feedback_test","",""
"","","","","","psychophysics","35","406984","0.0-7.0-0.0-0.12","28","","arrowright","","","","","","","","","","","","","key","arrowright","4.166806722689125","853.3333333333334","476","arrowright","true","../../test_img/19.png","生人","prac_matching_task","自我","[""<img src=\""../../test_img/25.png\"" width=150 style=\""vertical-align:middle\"">---生人"",""<img src=\""../../test_img/19.png\"" width=150 style=\""vertical-align:middle\"">---自我"",""<img src=\""../../test_img/12.png\"" width=150 style=\""vertical-align:middle\"">---朋友""]","","",""
"","","","","","html-keyboard-response","36","407288","0.0-7.0-0.0-1.12","null","<span style='color:yellow; font-size: 70px;'>过快! </span>","null","","","","","","","","","","","","","","","","","","","","","","","","","feedback_test","",""
"","","","","","psychophysics","37","408570","0.0-7.0-0.0-0.13","281","","arrowright","","","","","","","","","","","","","key","arrowright","4.166107382550336","853.3333333333334","476","arrowright","true","../../test_img/25.png","朋友","prac_matching_task","生人","[""<img src=\""../../test_img/25.png\"" width=150 style=\""vertical-align:middle\"">---生人"",""<img src=\""../../test_img/19.png\"" width=150 style=\""vertical-align:middle\"">---自我"",""<img src=\""../../test_img/12.png\"" width=150 style=\""vertical-align:middle\"">---朋友""]","","",""
"","","","","","html-keyboard-response","38","408875","0.0-7.0-0.0-1.13","null","<span style='color:GreenYellow; font-size: 70px;'>正确! </span>","null","","","","","","","","","","","","","","","","","","","","","","","","","feedback_test","",""
"","","","","","psychophysics","39","410195","0.0-7.0-0.0-0.14","315","","arrowleft","","","","","","","","","","","","","key","arrowleft","4.166449511400765","853.3333333333334","476","arrowleft","true","../../test_img/19.png","自我","prac_matching_task","自我","[""<img src=\""../../test_img/25.png\"" width=150 style=\""vertical-align:middle\"">---生人"",""<img src=\""../../test_img/19.png\"" width=150 style=\""vertical-align:middle\"">---自我"",""<img src=\""../../test_img/12.png\"" width=150 style=\""vertical-align:middle\"">---朋友""]","","",""
"","","","","","html-keyboard-response","40","410496","0.0-7.0-0.0-1.14","null","<span style='color:GreenYellow; font-size: 70px;'>正确! </span>","null","","","","","","","","","","","","","","","","","","","","","","","","","feedback_test","",""
"","","","","","psychophysics","41","411744","0.0-7.0-0.0-0.15","244","","arrowleft","","","","","","","","","","","","","key","arrowleft","4.166435986159089","853.3333333333334","476","arrowright","false","../../test_img/19.png","朋友","prac_matching_task","自我","[""<img src=\""../../test_img/25.png\"" width=150 style=\""vertical-align:middle\"">---生人"",""<img src=\""../../test_img/19.png\"" width=150 style=\""vertical-align:middle\"">---自我"",""<img src=\""../../test_img/12.png\"" width=150 style=\""vertical-align:middle\"">---朋友""]","","",""
"","","","","","html-keyboard-response","42","412054","0.0-7.0-0.0-1.15","null","<span style='color:red; font-size: 70px;'>错误! </span>","null","","","","","","","","","","","","","","","","","","","","","","","","","feedback_test","",""
"","","","","","psychophysics","43","413358","0.0-7.0-0.0-0.16","300","","arrowright","","","","","","","","","","","","","key","arrowright","4.166666666666667","853.3333333333334","476","arrowleft","false","../../test_img/25.png","生人","prac_matching_task","生人","[""<img src=\""../../test_img/25.png\"" width=150 style=\""vertical-align:middle\"">---生人"",""<img src=\""../../test_img/19.png\"" width=150 style=\""vertical-align:middle\"">---自我"",""<img src=\""../../test_img/12.png\"" width=150 style=\""vertical-align:middle\"">---朋友""]","","",""
"","","","","","html-keyboard-response","44","413673","0.0-7.0-0.0-1.16","null","<span style='color:red; font-size: 70px;'>错误! </span>","null","","","","","","","","","","","","","","","","","","","","","","","","","feedback_test","",""
"","","","","","psychophysics","45","414920","0.0-7.0-0.0-0.17","240","","arrowleft","","","","","","","","","","","","","key","arrowleft","4.180569444444497","853.3333333333334","476","arrowright","false","../../test_img/25.png","自我","prac_matching_task","生人","[""<img src=\""../../test_img/25.png\"" width=150 style=\""vertical-align:middle\"">---生人"",""<img src=\""../../test_img/19.png\"" width=150 style=\""vertical-align:middle\"">---自我"",""<img src=\""../../test_img/12.png\"" width=150 style=\""vertical-align:middle\"">---朋友""]","","",""
"","","","","","html-keyboard-response","46","415224","0.0-7.0-0.0-1.17","null","<span style='color:red; font-size: 70px;'>错误! </span>","null","","","","","","","","","","","","","","","","","","","","","","","","","feedback_test","",""
"","","","","","psychophysics","47","416592","0.0-7.0-0.0-0.18","364","","arrowleft","","","","","","","","","","","","","key","arrowleft","4.16656151419573","853.3333333333334","476","arrowleft","true","../../test_img/25.png","生人","prac_matching_task","生人","[""<img src=\""../../test_img/25.png\"" width=150 style=\""vertical-align:middle\"">---生人"",""<img src=\""../../test_img/19.png\"" width=150 style=\""vertical-align:middle\"">---自我"",""<img src=\""../../test_img/12.png\"" width=150 style=\""vertical-align:middle\"">---朋友""]","","",""
"","","","","","html-keyboard-response","48","416905","0.0-7.0-0.0-1.18","null","<span style='color:GreenYellow; font-size: 70px;'>正确! </span>","null","","","","","","","","","","","","","","","","","","","","","","","","","feedback_test","",""
"","","","","","psychophysics","49","418266","0.0-7.0-0.0-0.19","359","","arrowright","","","","","","","","","","","","","key","arrowright","4.166876971608723","853.3333333333334","476","arrowright","true","../../test_img/12.png","生人","prac_matching_task","朋友","[""<img src=\""../../test_img/25.png\"" width=150 style=\""vertical-align:middle\"">---生人"",""<img src=\""../../test_img/19.png\"" width=150 style=\""vertical-align:middle\"">---自我"",""<img src=\""../../test_img/12.png\"" width=150 style=\""vertical-align:middle\"">---朋友""]","","",""
"","","","","","html-keyboard-response","50","418576","0.0-7.0-0.0-1.19","null","<span style='color:GreenYellow; font-size: 70px;'>正确! </span>","null","","","","","","","","","","","","","","","","","","","","","","","","","feedback_test","",""
"","","","","","psychophysics","51","419912","0.0-7.0-0.0-0.20","333","","arrowright","","","","","","","","","","","","","key","arrowright","4.167096774193511","853.3333333333334","476","arrowleft","false","../../test_img/12.png","朋友","prac_matching_task","朋友","[""<img src=\""../../test_img/25.png\"" width=150 style=\""vertical-align:middle\"">---生人"",""<img src=\""../../test_img/19.png\"" width=150 style=\""vertical-align:middle\"">---自我"",""<img src=\""../../test_img/12.png\"" width=150 style=\""vertical-align:middle\"">---朋友""]","","",""
"","","","","","html-keyboard-response","52","420219","0.0-7.0-0.0-1.20","null","<span style='color:red; font-size: 70px;'>错误! </span>","null","","","","","","","","","","","","","","","","","","","","","","","","","feedback_test","",""
"","","","","","psychophysics","53","421491","0.0-7.0-0.0-0.21","267","","arrowleft","","","","","","","","","","","","","key","arrowleft","4.167118644067757","853.3333333333334","476","arrowleft","true","../../test_img/19.png","自我","prac_matching_task","自我","[""<img src=\""../../test_img/25.png\"" width=150 style=\""vertical-align:middle\"">---生人"",""<img src=\""../../test_img/19.png\"" width=150 style=\""vertical-align:middle\"">---自我"",""<img src=\""../../test_img/12.png\"" width=150 style=\""vertical-align:middle\"">---朋友""]","","",""
"","","","","","html-keyboard-response","54","421794","0.0-7.0-0.0-1.21","null","<span style='color:GreenYellow; font-size: 70px;'>正确! </span>","null","","","","","","","","","","","","","","","","","","","","","","","","","feedback_test","",""
"","","","","","psychophysics","55","423213","0.0-7.0-0.0-0.22","413","","arrowleft","","","","","","","","","","","","","key","arrowleft","4.166969696969627","853.3333333333334","476","arrowright","false","../../test_img/12.png","自我","prac_matching_task","朋友","[""<img src=\""../../test_img/25.png\"" width=150 style=\""vertical-align:middle\"">---生人"",""<img src=\""../../test_img/19.png\"" width=150 style=\""vertical-align:middle\"">---自我"",""<img src=\""../../test_img/12.png\"" width=150 style=\""vertical-align:middle\"">---朋友""]","","",""
"","","","","","html-keyboard-response","56","423521","0.0-7.0-0.0-1.22","null","<span style='color:red; font-size: 70px;'>错误! </span>","null","","","","","","","","","","","","","","","","","","","","","","","","","feedback_test","",""
"","","","","","psychophysics","57","424864","0.0-7.0-0.0-0.23","341","","arrowright","","","","","","","","","","","","","key","arrowright","4.1664536741215175","853.3333333333334","476","arrowleft","false","../../test_img/12.png","朋友","prac_matching_task","朋友","[""<img src=\""../../test_img/25.png\"" width=150 style=\""vertical-align:middle\"">---生人"",""<img src=\""../../test_img/19.png\"" width=150 style=\""vertical-align:middle\"">---自我"",""<img src=\""../../test_img/12.png\"" width=150 style=\""vertical-align:middle\"">---朋友""]","","",""
"","","","","","html-keyboard-response","58","425172","0.0-7.0-0.0-1.23","null","<span style='color:red; font-size: 70px;'>错误! </span>","null","","","","","","","","","","","","","","","","","","","","","","","","","feedback_test","",""
"","","","","","html-keyboard-response","59","431767","0.0-7.0-1.0-0.0","6592","<style>.context{color:white; font-size: 35px; line-height:40px}</style>                          <div><p class='context'>您正确回答了54% 的试次。</p ><p class='context'>您的平均反应时为297毫秒。</p >","arrowright","","","","","","","","","","","","","","","","","","","","","","","","","","",""
"","","","","","instructions","60","445287","0.0-7.0-1.0-1.0","13517","","","","","","","","","","","","","","[{""page_index"":0,""viewing_time"":1895},{""page_index"":1,""viewing_time"":4232},{""page_index"":2,""viewing_time"":2863},{""page_index"":3,""viewing_time"":4526}]","","","","","","","","","","","","","","",""
"","","","","","psychophysics","61","446653","0.0-7.1-0.1-0.24","361","","arrowleft","","","","","","","","","","","","","key","arrowleft","4.166875000000073","853.3333333333334","476","arrowleft","true","../../test_img/12.png","朋友","prac_matching_task","朋友","[""<img src=\""../../test_img/25.png\"" width=150 style=\""vertical-align:middle\"">---生人"",""<img src=\""../../test_img/19.png\"" width=150 style=\""vertical-align:middle\"">---自我"",""<img src=\""../../test_img/12.png\"" width=150 style=\""vertical-align:middle\"">---朋友""]","","",""
"","","","","","html-keyboard-response","62","446968","0.0-7.1-0.1-1.24","null","<span style='color:GreenYellow; font-size: 70px;'>正确! </span>","null","","","","","","","","","","","","","","","","","","","","","","","","","feedback_test","",""
"","","","","","psychophysics","63","448683","0.0-7.1-0.1-0.25","712","","arrowright","","","","","","","","","","","","","key","arrowright","4.166334164588558","853.3333333333334","476","arrowleft","false","../../test_img/25.png","生人","prac_matching_task","生人","[""<img src=\""../../test_img/25.png\"" width=150 style=\""vertical-align:middle\"">---生人"",""<img src=\""../../test_img/19.png\"" width=150 style=\""vertical-align:middle\"">---自我"",""<img src=\""../../test_img/12.png\"" width=150 style=\""vertical-align:middle\"">---朋友""]","","",""
"","","","","","html-keyboard-response","64","448984","0.0-7.1-0.1-1.25","null","<span style='color:red; font-size: 70px;'>错误! </span>","null","","","","","","","","","","","","","","","","","","","","","","","","","feedback_test","",""
"","","","","","psychophysics","65","450406","0.0-7.1-0.1-0.26","419","","arrowleft","","","","","","","","","","","","","key","arrowleft","4.179154078549813","853.3333333333334","476","arrowright","false","../../test_img/12.png","生人","prac_matching_task","朋友","[""<img src=\""../../test_img/25.png\"" width=150 style=\""vertical-align:middle\"">---生人"",""<img src=\""../../test_img/19.png\"" width=150 style=\""vertical-align:middle\"">---自我"",""<img src=\""../../test_img/12.png\"" width=150 style=\""vertical-align:middle\"">---朋友""]","","",""
"","","","","","html-keyboard-response","66","450716","0.0-7.1-0.1-1.26","null","<span style='color:red; font-size: 70px;'>错误! </span>","null","","","","","","","","","","","","","","","","","","","","","","","","","feedback_test","",""
"","","","","","psychophysics","67","452259","0.0-7.1-0.1-0.27","539","","arrowleft","","","","","","","","","","","","","key","arrowleft","4.166022099447449","853.3333333333334","476","arrowleft","true","../../test_img/19.png","自我","prac_matching_task","自我","[""<img src=\""../../test_img/25.png\"" width=150 style=\""vertical-align:middle\"">---生人"",""<img src=\""../../test_img/19.png\"" width=150 style=\""vertical-align:middle\"">---自我"",""<img src=\""../../test_img/12.png\"" width=150 style=\""vertical-align:middle\"">---朋友""]","","",""
"","","","","","html-keyboard-response","68","452564","0.0-7.1-0.1-1.27","null","<span style='color:GreenYellow; font-size: 70px;'>正确! </span>","null","","","","","","","","","","","","","","","","","","","","","","","","","feedback_test","",""
"","","","","","psychophysics","69","454096","0.0-7.1-0.1-0.28","526","","arrowleft","","","","","","","","","","","","","key","arrowleft","4.166573033707833","853.3333333333334","476","arrowleft","true","../../test_img/25.png","生人","prac_matching_task","生人","[""<img src=\""../../test_img/25.png\"" width=150 style=\""vertical-align:middle\"">---生人"",""<img src=\""../../test_img/19.png\"" width=150 style=\""vertical-align:middle\"">---自我"",""<img src=\""../../test_img/12.png\"" width=150 style=\""vertical-align:middle\"">---朋友""]","","",""
"","","","","","html-keyboard-response","70","454405","0.0-7.1-0.1-1.28","null","<span style='color:GreenYellow; font-size: 70px;'>正确! </span>","null","","","","","","","","","","","","","","","","","","","","","","","","","feedback_test","",""
"","","","","","psychophysics","71","455809","0.0-7.1-0.1-0.29","402","","arrowleft","","","","","","","","","","","","","key","arrowleft","4.166871165644064","853.3333333333334","476","arrowright","false","../../test_img/19.png","生人","prac_matching_task","自我","[""<img src=\""../../test_img/25.png\"" width=150 style=\""vertical-align:middle\"">---生人"",""<img src=\""../../test_img/19.png\"" width=150 style=\""vertical-align:middle\"">---自我"",""<img src=\""../../test_img/12.png\"" width=150 style=\""vertical-align:middle\"">---朋友""]","","",""
"","","","","","html-keyboard-response","72","456120","0.0-7.1-0.1-1.29","null","<span style='color:red; font-size: 70px;'>错误! </span>","null","","","","","","","","","","","","","","","","","","","","","","","","","feedback_test","",""
"","","","","","psychophysics","73","457418","0.0-7.1-0.1-0.30","294","","arrowleft","","","","","","","","","","","","","key","arrowleft","4.166777408637913","853.3333333333334","476","arrowleft","true","../../test_img/12.png","朋友","prac_matching_task","朋友","[""<img src=\""../../test_img/25.png\"" width=150 style=\""vertical-align:middle\"">---生人"",""<img src=\""../../test_img/19.png\"" width=150 style=\""vertical-align:middle\"">---自我"",""<img src=\""../../test_img/12.png\"" width=150 style=\""vertical-align:middle\"">---朋友""]","","",""
"","","","","","html-keyboard-response","74","457722","0.0-7.1-0.1-1.30","null","<span style='color:GreenYellow; font-size: 70px;'>正确! </span>","null","","","","","","","","","","","","","","","","","","","","","","","","","feedback_test","",""
"","","","","","psychophysics","75","459161","0.0-7.1-0.1-0.31","438","","arrowleft","","","","","","","","","","","","","key","arrowleft","4.166268656716452","853.3333333333334","476","arrowright","false","../../test_img/12.png","自我","prac_matching_task","朋友","[""<img src=\""../../test_img/25.png\"" width=150 style=\""vertical-align:middle\"">---生人"",""<img src=\""../../test_img/19.png\"" width=150 style=\""vertical-align:middle\"">---自我"",""<img src=\""../../test_img/12.png\"" width=150 style=\""vertical-align:middle\"">---朋友""]","","",""
"","","","","","html-keyboard-response","76","459475","0.0-7.1-0.1-1.31","null","<span style='color:red; font-size: 70px;'>错误! </span>","null","","","","","","","","","","","","","","","","","","","","","","","","","feedback_test","",""
"","","","","","psychophysics","77","460801","0.0-7.1-0.1-0.32","324","","arrowleft","","","","","","","","","","","","","key","arrowleft","4.166558441558403","853.3333333333334","476","arrowright","false","../../test_img/19.png","朋友","prac_matching_task","自我","[""<img src=\""../../test_img/25.png\"" width=150 style=\""vertical-align:middle\"">---生人"",""<img src=\""../../test_img/19.png\"" width=150 style=\""vertical-align:middle\"">---自我"",""<img src=\""../../test_img/12.png\"" width=150 style=\""vertical-align:middle\"">---朋友""]","","",""
"","","","","","html-keyboard-response","78","461109","0.0-7.1-0.1-1.32","null","<span style='color:red; font-size: 70px;'>错误! </span>","null","","","","","","","","","","","","","","","","","","","","","","","","","feedback_test","",""
"","","","","","psychophysics","79","462516","0.0-7.1-0.1-0.33","402","","arrowright","","","","","","","","","","","","","key","arrowright","4.166461538461646","853.3333333333334","476","arrowright","true","../../test_img/25.png","自我","prac_matching_task","生人","[""<img src=\""../../test_img/25.png\"" width=150 style=\""vertical-align:middle\"">---生人"",""<img src=\""../../test_img/19.png\"" width=150 style=\""vertical-align:middle\"">---自我"",""<img src=\""../../test_img/12.png\"" width=150 style=\""vertical-align:middle\"">---朋友""]","","",""
"","","","","","html-keyboard-response","80","462818","0.0-7.1-0.1-1.33","null","<span style='color:GreenYellow; font-size: 70px;'>正确! </span>","null","","","","","","","","","","","","","","","","","","","","","","","","","feedback_test","",""
"","","","","","psychophysics","81","464146","0.0-7.1-0.1-0.34","323","","arrowleft","","","","","","","","","","","","","key","arrowleft","4.166666666666667","853.3333333333334","476","arrowleft","true","../../test_img/19.png","自我","prac_matching_task","自我","[""<img src=\""../../test_img/25.png\"" width=150 style=\""vertical-align:middle\"">---生人"",""<img src=\""../../test_img/19.png\"" width=150 style=\""vertical-align:middle\"">---自我"",""<img src=\""../../test_img/12.png\"" width=150 style=\""vertical-align:middle\"">---朋友""]","","",""
"","","","","","html-keyboard-response","82","464451","0.0-7.1-0.1-1.34","null","<span style='color:GreenYellow; font-size: 70px;'>正确! </span>","null","","","","","","","","","","","","","","","","","","","","","","","","","feedback_test","",""
"","","","","","psychophysics","83","465801","0.0-7.1-0.1-0.35","345","","arrowright","","","","","","","","","","","","","key","arrowright","4.166346153846042","853.3333333333334","476","arrowright","true","../../test_img/25.png","朋友","prac_matching_task","生人","[""<img src=\""../../test_img/25.png\"" width=150 style=\""vertical-align:middle\"">---生人"",""<img src=\""../../test_img/19.png\"" width=150 style=\""vertical-align:middle\"">---自我"",""<img src=\""../../test_img/12.png\"" width=150 style=\""vertical-align:middle\"">---朋友""]","","",""
"","","","","","html-keyboard-response","84","466113","0.0-7.1-0.1-1.35","null","<span style='color:GreenYellow; font-size: 70px;'>正确! </span>","null","","","","","","","","","","","","","","","","","","","","","","","","","feedback_test","",""
"","","","","","psychophysics","85","467479","0.0-7.1-0.1-0.36","360","","arrowleft","","","","","","","","","","","","","key","arrowleft","4.167192429022082","853.3333333333334","476","arrowleft","true","../../test_img/19.png","自我","prac_matching_task","自我","[""<img src=\""../../test_img/25.png\"" width=150 style=\""vertical-align:middle\"">---生人"",""<img src=\""../../test_img/19.png\"" width=150 style=\""vertical-align:middle\"">---自我"",""<img src=\""../../test_img/12.png\"" width=150 style=\""vertical-align:middle\"">---朋友""]","","",""
"","","","","","html-keyboard-response","86","467789","0.0-7.1-0.1-1.36","null","<span style='color:GreenYellow; font-size: 70px;'>正确! </span>","null","","","","","","","","","","","","","","","","","","","","","","","","","feedback_test","",""
"","","","","","psychophysics","87","469154","0.0-7.1-0.1-0.37","361","","arrowright","","","","","","","","","","","","","key","arrowright","4.166246056782371","853.3333333333334","476","arrowleft","false","../../test_img/19.png","自我","prac_matching_task","自我","[""<img src=\""../../test_img/25.png\"" width=150 style=\""vertical-align:middle\"">---生人"",""<img src=\""../../test_img/19.png\"" width=150 style=\""vertical-align:middle\"">---自我"",""<img src=\""../../test_img/12.png\"" width=150 style=\""vertical-align:middle\"">---朋友""]","","",""
"","","","","","html-keyboard-response","88","469458","0.0-7.1-0.1-1.37","null","<span style='color:red; font-size: 70px;'>错误! </span>","null","","","","","","","","","","","","","","","","","","","","","","","","","feedback_test","",""
"","","","","","psychophysics","89","470762","0.0-7.1-0.1-0.38","298","","arrowleft","","","","","","","","","","","","","key","arrowleft","4.165894039735215","853.3333333333334","476","arrowleft","true","../../test_img/25.png","生人","prac_matching_task","生人","[""<img src=\""../../test_img/25.png\"" width=150 style=\""vertical-align:middle\"">---生人"",""<img src=\""../../test_img/19.png\"" width=150 style=\""vertical-align:middle\"">---自我"",""<img src=\""../../test_img/12.png\"" width=150 style=\""vertical-align:middle\"">---朋友""]","","",""
"","","","","","html-keyboard-response","90","471075","0.0-7.1-0.1-1.38","null","<span style='color:GreenYellow; font-size: 70px;'>正确! </span>","null","","","","","","","","","","","","","","","","","","","","","","","","","feedback_test","",""
"","","","","","psychophysics","91","472387","0.0-7.1-0.1-0.39","311","","arrowleft","","","","","","","","","","","","","key","arrowleft","4.16655629139069","853.3333333333334","476","arrowleft","true","../../test_img/12.png","朋友","prac_matching_task","朋友","[""<img src=\""../../test_img/25.png\"" width=150 style=\""vertical-align:middle\"">---生人"",""<img src=\""../../test_img/19.png\"" width=150 style=\""vertical-align:middle\"">---自我"",""<img src=\""../../test_img/12.png\"" width=150 style=\""vertical-align:middle\"">---朋友""]","","",""
"","","","","","html-keyboard-response","92","472698","0.0-7.1-0.1-1.39","null","<span style='color:GreenYellow; font-size: 70px;'>正确! </span>","null","","","","","","","","","","","","","","","","","","","","","","","","","feedback_test","",""
"","","","","","psychophysics","93","474046","0.0-7.1-0.1-0.40","346","","arrowleft","","","","","","","","","","","","","key","arrowleft","4.166346153846228","853.3333333333334","476","arrowright","false","../../test_img/12.png","自我","prac_matching_task","朋友","[""<img src=\""../../test_img/25.png\"" width=150 style=\""vertical-align:middle\"">---生人"",""<img src=\""../../test_img/19.png\"" width=150 style=\""vertical-align:middle\"">---自我"",""<img src=\""../../test_img/12.png\"" width=150 style=\""vertical-align:middle\"">---朋友""]","","",""
"","","","","","html-keyboard-response","94","474353","0.0-7.1-0.1-1.40","null","<span style='color:red; font-size: 70px;'>错误! </span>","null","","","","","","","","","","","","","","","","","","","","","","","","","feedback_test","",""
"","","","","","psychophysics","95","475635","0.0-7.1-0.1-0.41","280","","arrowleft","","","","","","","","","","","","","key","arrowleft","4.166107382550336","853.3333333333334","476","arrowright","false","../../test_img/19.png","生人","prac_matching_task","自我","[""<img src=\""../../test_img/25.png\"" width=150 style=\""vertical-align:middle\"">---生人"",""<img src=\""../../test_img/19.png\"" width=150 style=\""vertical-align:middle\"">---自我"",""<img src=\""../../test_img/12.png\"" width=150 style=\""vertical-align:middle\"">---朋友""]","","",""
"","","","","","html-keyboard-response","96","475941","0.0-7.1-0.1-1.41","null","<span style='color:red; font-size: 70px;'>错误! </span>","null","","","","","","","","","","","","","","","","","","","","","","","","","feedback_test","",""
"","","","","","psychophysics","97","477463","0.0-7.1-0.1-0.42","516","","arrowleft","","","","","","","","","","","","","key","arrowleft","4.165915492957812","853.3333333333334","476","arrowleft","true","../../test_img/25.png","生人","prac_matching_task","生人","[""<img src=\""../../test_img/25.png\"" width=150 style=\""vertical-align:middle\"">---生人"",""<img src=\""../../test_img/19.png\"" width=150 style=\""vertical-align:middle\"">---自我"",""<img src=\""../../test_img/12.png\"" width=150 style=\""vertical-align:middle\"">---朋友""]","","",""
"","","","","","html-keyboard-response","98","477770","0.0-7.1-0.1-1.42","null","<span style='color:GreenYellow; font-size: 70px;'>正确! </span>","null","","","","","","","","","","","","","","","","","","","","","","","","","feedback_test","",""
"","","","","","psychophysics","99","479113","0.0-7.1-0.1-0.43","343","","arrowright","","","","","","","","","","","","","key","arrowright","4.166666666666667","853.3333333333334","476","arrowright","true","../../test_img/12.png","生人","prac_matching_task","朋友","[""<img src=\""../../test_img/25.png\"" width=150 style=\""vertical-align:middle\"">---生人"",""<img src=\""../../test_img/19.png\"" width=150 style=\""vertical-align:middle\"">---自我"",""<img src=\""../../test_img/12.png\"" width=150 style=\""vertical-align:middle\"">---朋友""]","","",""
"","","","","","html-keyboard-response","100","479425","0.0-7.1-0.1-1.43","null","<span style='color:GreenYellow; font-size: 70px;'>正确! </span>","null","","","","","","","","","","","","","","","","","","","","","","","","","feedback_test","",""
"","","","","","psychophysics","101","480802","0.0-7.1-0.1-0.44","372","","arrowleft","","","","","","","","","","","","","key","arrowleft","4.166666666666667","853.3333333333334","476","arrowright","false","../../test_img/25.png","朋友","prac_matching_task","生人","[""<img src=\""../../test_img/25.png\"" width=150 style=\""vertical-align:middle\"">---生人"",""<img src=\""../../test_img/19.png\"" width=150 style=\""vertical-align:middle\"">---自我"",""<img src=\""../../test_img/12.png\"" width=150 style=\""vertical-align:middle\"">---朋友""]","","",""
"","","","","","html-keyboard-response","102","481108","0.0-7.1-0.1-1.44","null","<span style='color:red; font-size: 70px;'>错误! </span>","null","","","","","","","","","","","","","","","","","","","","","","","","","feedback_test","",""
"","","","","","psychophysics","103","482337","0.0-7.1-0.1-0.45","226","","arrowleft","","","","","","","","","","","","","key","arrowleft","4.166666666666667","853.3333333333334","476","arrowleft","true","../../test_img/12.png","朋友","prac_matching_task","朋友","[""<img src=\""../../test_img/25.png\"" width=150 style=\""vertical-align:middle\"">---生人"",""<img src=\""../../test_img/19.png\"" width=150 style=\""vertical-align:middle\"">---自我"",""<img src=\""../../test_img/12.png\"" width=150 style=\""vertical-align:middle\"">---朋友""]","","",""
"","","","","","html-keyboard-response","104","482649","0.0-7.1-0.1-1.45","null","<span style='color:GreenYellow; font-size: 70px;'>正确! </span>","null","","","","","","","","","","","","","","","","","","","","","","","","","feedback_test","",""
"","","","","","psychophysics","105","484001","0.0-7.1-0.1-0.46","347","","arrowleft","","","","","","","","","","","","","key","arrowleft","4.166455696202458","853.3333333333334","476","arrowright","false","../../test_img/25.png","自我","prac_matching_task","生人","[""<img src=\""../../test_img/25.png\"" width=150 style=\""vertical-align:middle\"">---生人"",""<img src=\""../../test_img/19.png\"" width=150 style=\""vertical-align:middle\"">---自我"",""<img src=\""../../test_img/12.png\"" width=150 style=\""vertical-align:middle\"">---朋友""]","","",""
"","","","","","html-keyboard-response","106","484316","0.0-7.1-0.1-1.46","null","<span style='color:red; font-size: 70px;'>错误! </span>","null","","","","","","","","","","","","","","","","","","","","","","","","","feedback_test","",""
"","","","","","psychophysics","107","485819","0.0-7.1-0.1-0.47","499","","arrowleft","","","","","","","","","","","","","key","arrowleft","4.166951566951501","853.3333333333334","476","arrowright","false","../../test_img/19.png","朋友","prac_matching_task","自我","[""<img src=\""../../test_img/25.png\"" width=150 style=\""vertical-align:middle\"">---生人"",""<img src=\""../../test_img/19.png\"" width=150 style=\""vertical-align:middle\"">---自我"",""<img src=\""../../test_img/12.png\"" width=150 style=\""vertical-align:middle\"">---朋友""]","","",""
"","","","","","html-keyboard-response","108","486123","0.0-7.1-0.1-1.47","null","<span style='color:red; font-size: 70px;'>错误! </span>","null","","","","","","","","","","","","","","","","","","","","","","","","","feedback_test","",""
"","","","","","html-keyboard-response","109","488846","0.0-7.1-1.1-0.1","2721","<style>.context{color:white; font-size: 35px; line-height:40px}</style>                          <div><p class='context'>您正确回答了54% 的试次。</p ><p class='context'>您的平均反应时为373毫秒。</p >","arrowright","","","","","","","","","","","","","","","","","","","","","","","","","","",""
"","","","","","instructions","110","495725","0.0-7.1-1.1-1.1","6876","","","","","","","","","","","","","","[{""page_index"":0,""viewing_time"":1406},{""page_index"":1,""viewing_time"":1709},{""page_index"":2,""viewing_time"":2219},{""page_index"":3,""viewing_time"":1541}]","","","","","","","","","","","","","","",""
"","","","","","psychophysics","111","497049","0.0-7.2-0.2-0.48","317","","arrowleft","","","","","","","","","","","","","key","arrowleft","4.166558441558403","853.3333333333334","476","arrowright","false","../../test_img/12.png","生人","prac_matching_task","朋友","[""<img src=\""../../test_img/25.png\"" width=150 style=\""vertical-align:middle\"">---生人"",""<img src=\""../../test_img/19.png\"" width=150 style=\""vertical-align:middle\"">---自我"",""<img src=\""../../test_img/12.png\"" width=150 style=\""vertical-align:middle\"">---朋友""]","","",""
"","","","","","html-keyboard-response","112","497357","0.0-7.2-0.2-1.48","null","<span style='color:red; font-size: 70px;'>错误! </span>","null","","","","","","","","","","","","","","","","","","","","","","","","","feedback_test","",""
"","","","","","psychophysics","113","498573","0.0-7.2-0.2-0.49","213","","arrowright","","","","","","","","","","","","","key","arrowright","4.166431095406278","853.3333333333334","476","arrowright","true","../../test_img/25.png","朋友","prac_matching_task","生人","[""<img src=\""../../test_img/25.png\"" width=150 style=\""vertical-align:middle\"">---生人"",""<img src=\""../../test_img/19.png\"" width=150 style=\""vertical-align:middle\"">---自我"",""<img src=\""../../test_img/12.png\"" width=150 style=\""vertical-align:middle\"">---朋友""]","","",""
"","","","","","html-keyboard-response","114","498880","0.0-7.2-0.2-1.49","null","<span style='color:GreenYellow; font-size: 70px;'>正确! </span>","null","","","","","","","","","","","","","","","","","","","","","","","","","feedback_test","",""
"","","","","","psychophysics","115","500282","0.0-7.2-0.2-0.50","401","","arrowright","","","","","","","","","","","","","key","arrowright","4.166767371601243","853.3333333333334","476","arrowleft","false","../../test_img/25.png","生人","prac_matching_task","生人","[""<img src=\""../../test_img/25.png\"" width=150 style=\""vertical-align:middle\"">---生人"",""<img src=\""../../test_img/19.png\"" width=150 style=\""vertical-align:middle\"">---自我"",""<img src=\""../../test_img/12.png\"" width=150 style=\""vertical-align:middle\"">---朋友""]","","",""
"","","","","","html-keyboard-response","116","500588","0.0-7.2-0.2-1.50","null","<span style='color:red; font-size: 70px;'>错误! </span>","null","","","","","","","","","","","","","","","","","","","","","","","","","feedback_test","",""
"","","","","","psychophysics","117","501911","0.0-7.2-0.2-0.51","318","","arrowleft","","","","","","","","","","","","","key","arrowleft","4.166233766233804","853.3333333333334","476","arrowright","false","../../test_img/25.png","自我","prac_matching_task","生人","[""<img src=\""../../test_img/25.png\"" width=150 style=\""vertical-align:middle\"">---生人"",""<img src=\""../../test_img/19.png\"" width=150 style=\""vertical-align:middle\"">---自我"",""<img src=\""../../test_img/12.png\"" width=150 style=\""vertical-align:middle\"">---朋友""]","","",""
"","","","","","html-keyboard-response","118","502220","0.0-7.2-0.2-1.51","null","<span style='color:red; font-size: 70px;'>错误! </span>","null","","","","","","","","","","","","","","","","","","","","","","","","","feedback_test","",""
"","","","","","psychophysics","119","503513","0.0-7.2-0.2-0.52","290","","arrowleft","","","","","","","","","","","","","key","arrowleft","4.166456953642253","853.3333333333334","476","arrowright","false","../../test_img/19.png","朋友","prac_matching_task","自我","[""<img src=\""../../test_img/25.png\"" width=150 style=\""vertical-align:middle\"">---生人"",""<img src=\""../../test_img/19.png\"" width=150 style=\""vertical-align:middle\"">---自我"",""<img src=\""../../test_img/12.png\"" width=150 style=\""vertical-align:middle\"">---朋友""]","","",""
"","","","","","html-keyboard-response","120","503818","0.0-7.2-0.2-1.52","null","<span style='color:red; font-size: 70px;'>错误! </span>","null","","","","","","","","","","","","","","","","","","","","","","","","","feedback_test","",""
"","","","","","psychophysics","121","504895","0.0-7.2-0.2-0.53","73","","arrowright","","","","","","","","","","","","","key","arrowright","4.16734693877551","853.3333333333334","476","arrowleft","false","../../test_img/19.png","自我","prac_matching_task","自我","[""<img src=\""../../test_img/25.png\"" width=150 style=\""vertical-align:middle\"">---生人"",""<img src=\""../../test_img/19.png\"" width=150 style=\""vertical-align:middle\"">---自我"",""<img src=\""../../test_img/12.png\"" width=150 style=\""vertical-align:middle\"">---朋友""]","","",""
"","","","","","html-keyboard-response","122","505203","0.0-7.2-0.2-1.53","null","<span style='color:yellow; font-size: 70px;'>过快! </span>","null","","","","","","","","","","","","","","","","","","","","","","","","","feedback_test","",""
"","","","","","psychophysics","123","506531","0.0-7.2-0.2-0.54","327","","arrowright","","","","","","","","","","","","","key","arrowright","4.166666666666667","853.3333333333334","476","arrowleft","false","../../test_img/25.png","生人","prac_matching_task","生人","[""<img src=\""../../test_img/25.png\"" width=150 style=\""vertical-align:middle\"">---生人"",""<img src=\""../../test_img/19.png\"" width=150 style=\""vertical-align:middle\"">---自我"",""<img src=\""../../test_img/12.png\"" width=150 style=\""vertical-align:middle\"">---朋友""]","","",""
"","","","","","html-keyboard-response","124","506838","0.0-7.2-0.2-1.54","null","<span style='color:red; font-size: 70px;'>错误! </span>","null","","","","","","","","","","","","","","","","","","","","","","","","","feedback_test","",""
"","","","","","psychophysics","125","508071","0.0-7.2-0.2-0.55","229","","arrowleft","","","","","","","","","","","","","key","arrowleft","4.166783216783258","853.3333333333334","476","arrowleft","true","../../test_img/12.png","朋友","prac_matching_task","朋友","[""<img src=\""../../test_img/25.png\"" width=150 style=\""vertical-align:middle\"">---生人"",""<img src=\""../../test_img/19.png\"" width=150 style=\""vertical-align:middle\"">---自我"",""<img src=\""../../test_img/12.png\"" width=150 style=\""vertical-align:middle\"">---朋友""]","","",""
"","","","","","html-keyboard-response","126","508375","0.0-7.2-0.2-1.55","null","<span style='color:GreenYellow; font-size: 70px;'>正确! </span>","null","","","","","","","","","","","","","","","","","","","","","","","","","feedback_test","",""
"","","","","","psychophysics","127","509817","0.0-7.2-0.2-0.56","437","","arrowleft","","","","","","","","","","","","","key","arrowleft","4.166865671641861","853.3333333333334","476","arrowleft","true","../../test_img/19.png","自我","prac_matching_task","自我","[""<img src=\""../../test_img/25.png\"" width=150 style=\""vertical-align:middle\"">---生人"",""<img src=\""../../test_img/19.png\"" width=150 style=\""vertical-align:middle\"">---自我"",""<img src=\""../../test_img/12.png\"" width=150 style=\""vertical-align:middle\"">---朋友""]","","",""
"","","","","","html-keyboard-response","128","510134","0.0-7.2-0.2-1.56","null","<span style='color:GreenYellow; font-size: 70px;'>正确! </span>","null","","","","","","","","","","","","","","","","","","","","","","","","","feedback_test","",""
"","","","","","psychophysics","129","511535","0.0-7.2-0.2-0.57","397","","arrowleft","","","","","","","","","","","","","key","arrowleft","4.166666666666667","853.3333333333334","476","arrowleft","true","../../test_img/12.png","朋友","prac_matching_task","朋友","[""<img src=\""../../test_img/25.png\"" width=150 style=\""vertical-align:middle\"">---生人"",""<img src=\""../../test_img/19.png\"" width=150 style=\""vertical-align:middle\"">---自我"",""<img src=\""../../test_img/12.png\"" width=150 style=\""vertical-align:middle\"">---朋友""]","","",""
"","","","","","html-keyboard-response","130","511850","0.0-7.2-0.2-1.57","null","<span style='color:GreenYellow; font-size: 70px;'>正确! </span>","null","","","","","","","","","","","","","","","","","","","","","","","","","feedback_test","",""
"","","","","","psychophysics","131","513514","0.0-7.2-0.2-0.58","660","","arrowright","","","","","","","","","","","","","key","arrowright","4.166237113402062","853.3333333333334","476","arrowright","true","../../test_img/12.png","自我","prac_matching_task","朋友","[""<img src=\""../../test_img/25.png\"" width=150 style=\""vertical-align:middle\"">---生人"",""<img src=\""../../test_img/19.png\"" width=150 style=\""vertical-align:middle\"">---自我"",""<img src=\""../../test_img/12.png\"" width=150 style=\""vertical-align:middle\"">---朋友""]","","",""
"","","","","","html-keyboard-response","132","513824","0.0-7.2-0.2-1.58","null","<span style='color:GreenYellow; font-size: 70px;'>正确! </span>","null","","","","","","","","","","","","","","","","","","","","","","","","","feedback_test","",""
"","","","","","psychophysics","133","515471","0.0-7.2-0.2-0.59","641","","arrowleft","","","","","","","","","","","","","key","arrowleft","4.166493506493446","853.3333333333334","476","arrowright","false","../../test_img/19.png","生人","prac_matching_task","自我","[""<img src=\""../../test_img/25.png\"" width=150 style=\""vertical-align:middle\"">---生人"",""<img src=\""../../test_img/19.png\"" width=150 style=\""vertical-align:middle\"">---自我"",""<img src=\""../../test_img/12.png\"" width=150 style=\""vertical-align:middle\"">---朋友""]","","",""
"","","","","","html-keyboard-response","134","515786","0.0-7.2-0.2-1.59","null","<span style='color:red; font-size: 70px;'>错误! </span>","null","","","","","","","","","","","","","","","","","","","","","","","","","feedback_test","",""
"","","","","","psychophysics","135","517260","0.0-7.2-0.2-0.60","469","","arrowleft","","","","","","","","","","","","","key","arrowleft","4.166472303207099","853.3333333333334","476","arrowleft","true","../../test_img/12.png","朋友","prac_matching_task","朋友","[""<img src=\""../../test_img/25.png\"" width=150 style=\""vertical-align:middle\"">---生人"",""<img src=\""../../test_img/19.png\"" width=150 style=\""vertical-align:middle\"">---自我"",""<img src=\""../../test_img/12.png\"" width=150 style=\""vertical-align:middle\"">---朋友""]","","",""
"","","","","","html-keyboard-response","136","517563","0.0-7.2-0.2-1.60","null","<span style='color:GreenYellow; font-size: 70px;'>正确! </span>","null","","","","","","","","","","","","","","","","","","","","","","","","","feedback_test","",""
"","","","","","psychophysics","137","519097","0.0-7.2-0.2-0.61","531","","arrowright","","","","","","","","","","","","","key","arrowright","4.166201117318436","853.3333333333334","476","arrowright","true","../../test_img/25.png","朋友","prac_matching_task","生人","[""<img src=\""../../test_img/25.png\"" width=150 style=\""vertical-align:middle\"">---生人"",""<img src=\""../../test_img/19.png\"" width=150 style=\""vertical-align:middle\"">---自我"",""<img src=\""../../test_img/12.png\"" width=150 style=\""vertical-align:middle\"">---朋友""]","","",""
"","","","","","html-keyboard-response","138","519413","0.0-7.2-0.2-1.61","null","<span style='color:GreenYellow; font-size: 70px;'>正确! </span>","null","","","","","","","","","","","","","","","","","","","","","","","","","feedback_test","",""
"","","","","","psychophysics","139","521213","0.0-7.2-0.2-0.62","797","","arrowleft","","","","","","","","","","","","","key","arrowleft","4.166508313539276","853.3333333333334","476","arrowleft","true","../../test_img/19.png","自我","prac_matching_task","自我","[""<img src=\""../../test_img/25.png\"" width=150 style=\""vertical-align:middle\"">---生人"",""<img src=\""../../test_img/19.png\"" width=150 style=\""vertical-align:middle\"">---自我"",""<img src=\""../../test_img/12.png\"" width=150 style=\""vertical-align:middle\"">---朋友""]","","",""
"","","","","","html-keyboard-response","140","521523","0.0-7.2-0.2-1.62","null","<span style='color:GreenYellow; font-size: 70px;'>正确! </span>","null","","","","","","","","","","","","","","","","","","","","","","","","","feedback_test","",""
"","","","","","psychophysics","141","523313","0.0-7.2-0.2-0.63","785","","arrowright","","","","","","","","","","","","","key","arrowright","4.166587112171671","853.3333333333334","476","arrowright","true","../../test_img/12.png","生人","prac_matching_task","朋友","[""<img src=\""../../test_img/25.png\"" width=150 style=\""vertical-align:middle\"">---生人"",""<img src=\""../../test_img/19.png\"" width=150 style=\""vertical-align:middle\"">---自我"",""<img src=\""../../test_img/12.png\"" width=150 style=\""vertical-align:middle\"">---朋友""]","","",""
"","","","","","html-keyboard-response","142","523623","0.0-7.2-0.2-1.63","null","<span style='color:GreenYellow; font-size: 70px;'>正确! </span>","null","","","","","","","","","","","","","","","","","","","","","","","","","feedback_test","",""
"","","","","","psychophysics","143","525345","0.0-7.2-0.2-0.64","717","","arrowleft","","","","","","","","","","","","","key","arrowleft","4.166749379652779","853.3333333333334","476","arrowleft","true","../../test_img/19.png","自我","prac_matching_task","自我","[""<img src=\""../../test_img/25.png\"" width=150 style=\""vertical-align:middle\"">---生人"",""<img src=\""../../test_img/19.png\"" width=150 style=\""vertical-align:middle\"">---自我"",""<img src=\""../../test_img/12.png\"" width=150 style=\""vertical-align:middle\"">---朋友""]","","",""
"","","","","","html-keyboard-response","144","525647","0.0-7.2-0.2-1.64","null","<span style='color:GreenYellow; font-size: 70px;'>正确! </span>","null","","","","","","","","","","","","","","","","","","","","","","","","","feedback_test","",""
"","","","","","psychophysics","145","527275","0.0-7.2-0.2-0.65","623","","arrowright","","","","","","","","","","","","","key","arrowright","4.16615183246066","853.3333333333334","476","arrowright","true","../../test_img/19.png","朋友","prac_matching_task","自我","[""<img src=\""../../test_img/25.png\"" width=150 style=\""vertical-align:middle\"">---生人"",""<img src=\""../../test_img/19.png\"" width=150 style=\""vertical-align:middle\"">---自我"",""<img src=\""../../test_img/12.png\"" width=150 style=\""vertical-align:middle\"">---朋友""]","","",""
"","","","","","html-keyboard-response","146","527591","0.0-7.2-0.2-1.65","null","<span style='color:GreenYellow; font-size: 70px;'>正确! </span>","null","","","","","","","","","","","","","","","","","","","","","","","","","feedback_test","",""
"","","","","","psychophysics","147","528954","0.0-7.2-0.2-0.66","360","","arrowleft","","","","","","","","","","","","","key","arrowleft","4.16634920634928","853.3333333333334","476","arrowright","false","../../test_img/19.png","生人","prac_matching_task","自我","[""<img src=\""../../test_img/25.png\"" width=150 style=\""vertical-align:middle\"">---生人"",""<img src=\""../../test_img/19.png\"" width=150 style=\""vertical-align:middle\"">---自我"",""<img src=\""../../test_img/12.png\"" width=150 style=\""vertical-align:middle\"">---朋友""]","","",""
"","","","","","html-keyboard-response","148","529257","0.0-7.2-0.2-1.66","null","<span style='color:red; font-size: 70px;'>错误! </span>","null","","","","","","","","","","","","","","","","","","","","","","","","","feedback_test","",""
"","","","","","psychophysics","149","530811","0.0-7.2-0.2-0.67","551","","arrowleft","","","","","","","","","","","","","key","arrowleft","4.166666666666667","853.3333333333334","476","arrowright","false","../../test_img/12.png","自我","prac_matching_task","朋友","[""<img src=\""../../test_img/25.png\"" width=150 style=\""vertical-align:middle\"">---生人"",""<img src=\""../../test_img/19.png\"" width=150 style=\""vertical-align:middle\"">---自我"",""<img src=\""../../test_img/12.png\"" width=150 style=\""vertical-align:middle\"">---朋友""]","","",""
"","","","","","html-keyboard-response","150","531126","0.0-7.2-0.2-1.67","null","<span style='color:red; font-size: 70px;'>错误! </span>","null","","","","","","","","","","","","","","","","","","","","","","","","","feedback_test","",""
"","","","","","psychophysics","151","532773","0.0-7.2-0.2-0.68","643","","arrowright","","","","","","","","","","","","","key","arrowright","4.166493506493748","853.3333333333334","476","arrowleft","false","../../test_img/25.png","生人","prac_matching_task","生人","[""<img src=\""../../test_img/25.png\"" width=150 style=\""vertical-align:middle\"">---生人"",""<img src=\""../../test_img/19.png\"" width=150 style=\""vertical-align:middle\"">---自我"",""<img src=\""../../test_img/12.png\"" width=150 style=\""vertical-align:middle\"">---朋友""]","","",""
"","","","","","html-keyboard-response","152","533091","0.0-7.2-0.2-1.68","null","<span style='color:red; font-size: 70px;'>错误! </span>","null","","","","","","","","","","","","","","","","","","","","","","","","","feedback_test","",""
"","","","","","psychophysics","153","534562","0.0-7.2-0.2-0.69","468","","arrowleft","","","","","","","","","","","","","key","arrowleft","4.165204678362573","853.3333333333334","476","arrowright","false","../../test_img/25.png","自我","prac_matching_task","生人","[""<img src=\""../../test_img/25.png\"" width=150 style=\""vertical-align:middle\"">---生人"",""<img src=\""../../test_img/19.png\"" width=150 style=\""vertical-align:middle\"">---自我"",""<img src=\""../../test_img/12.png\"" width=150 style=\""vertical-align:middle\"">---朋友""]","","",""
"","","","","","html-keyboard-response","154","534865","0.0-7.2-0.2-1.69","null","<span style='color:red; font-size: 70px;'>错误! </span>","null","","","","","","","","","","","","","","","","","","","","","","","","","feedback_test","",""
"","","","","","psychophysics","155","536531","0.0-7.2-0.2-0.70","664","","arrowright","","","","","","","","","","","","","key","arrowright","4.166838046272254","853.3333333333334","476","arrowleft","false","../../test_img/25.png","生人","prac_matching_task","生人","[""<img src=\""../../test_img/25.png\"" width=150 style=\""vertical-align:middle\"">---生人"",""<img src=\""../../test_img/19.png\"" width=150 style=\""vertical-align:middle\"">---自我"",""<img src=\""../../test_img/12.png\"" width=150 style=\""vertical-align:middle\"">---朋友""]","","",""
"","","","","","html-keyboard-response","156","536840","0.0-7.2-0.2-1.70","null","<span style='color:red; font-size: 70px;'>错误! </span>","null","","","","","","","","","","","","","","","","","","","","","","","","","feedback_test","",""
"","","","","","psychophysics","157","538394","0.0-7.2-0.2-0.71","551","","arrowright","","","","","","","","","","","","","key","arrowright","4.166850828729346","853.3333333333334","476","arrowleft","false","../../test_img/12.png","朋友","prac_matching_task","朋友","[""<img src=\""../../test_img/25.png\"" width=150 style=\""vertical-align:middle\"">---生人"",""<img src=\""../../test_img/19.png\"" width=150 style=\""vertical-align:middle\"">---自我"",""<img src=\""../../test_img/12.png\"" width=150 style=\""vertical-align:middle\"">---朋友""]","","",""
"","","","","","html-keyboard-response","158","538708","0.0-7.2-0.2-1.71","null","<span style='color:red; font-size: 70px;'>错误! </span>","null","","","","","","","","","","","","","","","","","","","","","","","","","feedback_test","",""
"","","","","","html-keyboard-response","159","541353","0.0-7.2-1.2-0.2","2643","<style>.context{color:white; font-size: 35px; line-height:40px}</style>                          <div><p class='context'>您正确回答了46% 的试次。</p ><p class='context'>您的平均反应时为533毫秒。</p >","arrowright","","","","","","","","","","","","","","","","","","","","","","","","","","",""
"","","","","","instructions","160","547317","0.0-7.2-1.2-1.2","5962","","","","","","","","","","","","","","[{""page_index"":0,""viewing_time"":1177},{""page_index"":1,""viewing_time"":1710},{""page_index"":2,""viewing_time"":1613},{""page_index"":3,""viewing_time"":1461}]","","","","","","","","","","","","","","",""
"","","","","","psychophysics","161","548986","0.0-7.3-0.3-0.72","665","","arrowright","","","","","","","","","","","","","key","arrowright","4.166496163682805","853.3333333333334","476","arrowright","true","../../test_img/19.png","朋友","prac_matching_task","自我","[""<img src=\""../../test_img/25.png\"" width=150 style=\""vertical-align:middle\"">---生人"",""<img src=\""../../test_img/19.png\"" width=150 style=\""vertical-align:middle\"">---自我"",""<img src=\""../../test_img/12.png\"" width=150 style=\""vertical-align:middle\"">---朋友""]","","",""
"","","","","","html-keyboard-response","162","549288","0.0-7.3-0.3-1.72","null","<span style='color:GreenYellow; font-size: 70px;'>正确! </span>","null","","","","","","","","","","","","","","","","","","","","","","","","","feedback_test","",""
"","","","","","psychophysics","163","550876","0.0-7.3-0.3-0.73","584","","arrowleft","","","","","","","","","","","","","key","arrowleft","4.166037735849308","853.3333333333334","476","arrowleft","true","../../test_img/19.png","自我","prac_matching_task","自我","[""<img src=\""../../test_img/25.png\"" width=150 style=\""vertical-align:middle\"">---生人"",""<img src=\""../../test_img/19.png\"" width=150 style=\""vertical-align:middle\"">---自我"",""<img src=\""../../test_img/12.png\"" width=150 style=\""vertical-align:middle\"">---朋友""]","","",""
"","","","","","html-keyboard-response","164","551192","0.0-7.3-0.3-1.73","null","<span style='color:GreenYellow; font-size: 70px;'>正确! </span>","null","","","","","","","","","","","","","","","","","","","","","","","","","feedback_test","",""
"","","","","","psychophysics","165","552888","0.0-7.3-0.3-0.74","693","","arrowleft","","","","","","","","","","","","","key","arrowleft","4.167005076141955","853.3333333333334","476","arrowleft","true","../../test_img/19.png","自我","prac_matching_task","自我","[""<img src=\""../../test_img/25.png\"" width=150 style=\""vertical-align:middle\"">---生人"",""<img src=\""../../test_img/19.png\"" width=150 style=\""vertical-align:middle\"">---自我"",""<img src=\""../../test_img/12.png\"" width=150 style=\""vertical-align:middle\"">---朋友""]","","",""
"","","","","","html-keyboard-response","166","553198","0.0-7.3-0.3-1.74","null","<span style='color:GreenYellow; font-size: 70px;'>正确! </span>","null","","","","","","","","","","","","","","","","","","","","","","","","","feedback_test","",""
"","","","","","psychophysics","167","554744","0.0-7.3-0.3-0.75","540","","arrowright","","","","","","","","","","","","","key","arrowright","4.166481994459769","853.3333333333334","476","arrowright","true","../../test_img/12.png","生人","prac_matching_task","朋友","[""<img src=\""../../test_img/25.png\"" width=150 style=\""vertical-align:middle\"">---生人"",""<img src=\""../../test_img/19.png\"" width=150 style=\""vertical-align:middle\"">---自我"",""<img src=\""../../test_img/12.png\"" width=150 style=\""vertical-align:middle\"">---朋友""]","","",""
"","","","","","html-keyboard-response","168","555055","0.0-7.3-0.3-1.75","null","<span style='color:GreenYellow; font-size: 70px;'>正确! </span>","null","","","","","","","","","","","","","","","","","","","","","","","","","feedback_test","",""
"","","","","","psychophysics","169","556663","0.0-7.3-0.3-0.76","606","","arrowleft","","","","","","","","","","","","","key","arrowleft","4.166489361702066","853.3333333333334","476","arrowleft","true","../../test_img/25.png","生人","prac_matching_task","生人","[""<img src=\""../../test_img/25.png\"" width=150 style=\""vertical-align:middle\"">---生人"",""<img src=\""../../test_img/19.png\"" width=150 style=\""vertical-align:middle\"">---自我"",""<img src=\""../../test_img/12.png\"" width=150 style=\""vertical-align:middle\"">---朋友""]","","",""
"","","","","","html-keyboard-response","170","556966","0.0-7.3-0.3-1.76","null","<span style='color:GreenYellow; font-size: 70px;'>正确! </span>","null","","","","","","","","","","","","","","","","","","","","","","","","","feedback_test","",""
"","","","","","psychophysics","171","558720","0.0-7.3-0.3-0.77","751","","arrowleft","","","","","","","","","","","","","key","arrowleft","4.16642335766429","853.3333333333334","476","arrowleft","true","../../test_img/25.png","生人","prac_matching_task","生人","[""<img src=\""../../test_img/25.png\"" width=150 style=\""vertical-align:middle\"">---生人"",""<img src=\""../../test_img/19.png\"" width=150 style=\""vertical-align:middle\"">---自我"",""<img src=\""../../test_img/12.png\"" width=150 style=\""vertical-align:middle\"">---朋友""]","","",""
"","","","","","html-keyboard-response","172","559023","0.0-7.3-0.3-1.77","null","<span style='color:GreenYellow; font-size: 70px;'>正确! </span>","null","","","","","","","","","","","","","","","","","","","","","","","","","feedback_test","",""
"","","","","","psychophysics","173","560726","0.0-7.3-0.3-0.78","699","","arrowleft","","","","","","","","","","","","","key","arrowleft","4.166582914572689","853.3333333333334","476","arrowright","false","../../test_img/25.png","朋友","prac_matching_task","生人","[""<img src=\""../../test_img/25.png\"" width=150 style=\""vertical-align:middle\"">---生人"",""<img src=\""../../test_img/19.png\"" width=150 style=\""vertical-align:middle\"">---自我"",""<img src=\""../../test_img/12.png\"" width=150 style=\""vertical-align:middle\"">---朋友""]","","",""
"","","","","","html-keyboard-response","174","561027","0.0-7.3-0.3-1.78","null","<span style='color:red; font-size: 70px;'>错误! </span>","null","","","","","","","","","","","","","","","","","","","","","","","","","feedback_test","",""
"","","","","","psychophysics","175","562833","0.0-7.3-0.3-0.79","801","","arrowright","","","","","","","","","","","","","key","arrowright","4.1661137440757745","853.3333333333334","476","arrowright","true","../../test_img/12.png","自我","prac_matching_task","朋友","[""<img src=\""../../test_img/25.png\"" width=150 style=\""vertical-align:middle\"">---生人"",""<img src=\""../../test_img/19.png\"" width=150 style=\""vertical-align:middle\"">---自我"",""<img src=\""../../test_img/12.png\"" width=150 style=\""vertical-align:middle\"">---朋友""]","","",""
"","","","","","html-keyboard-response","176","563147","0.0-7.3-0.3-1.79","null","<span style='color:GreenYellow; font-size: 70px;'>正确! </span>","null","","","","","","","","","","","","","","","","","","","","","","","","","feedback_test","",""
"","","","","","psychophysics","177","564753","0.0-7.3-0.3-0.80","601","","arrowleft","","","","","","","","","","","","","key","arrowleft","4.165957446808573","853.3333333333334","476","arrowright","false","../../test_img/25.png","自我","prac_matching_task","生人","[""<img src=\""../../test_img/25.png\"" width=150 style=\""vertical-align:middle\"">---生人"",""<img src=\""../../test_img/19.png\"" width=150 style=\""vertical-align:middle\"">---自我"",""<img src=\""../../test_img/12.png\"" width=150 style=\""vertical-align:middle\"">---朋友""]","","",""
"","","","","","html-keyboard-response","178","565063","0.0-7.3-0.3-1.80","null","<span style='color:red; font-size: 70px;'>错误! </span>","null","","","","","","","","","","","","","","","","","","","","","","","","","feedback_test","",""
"","","","","","psychophysics","179","566904","0.0-7.3-0.3-0.81","835","","arrowright","","","","","","","","","","","","","key","arrowright","4.166511627906923","853.3333333333334","476","arrowright","true","../../test_img/19.png","生人","prac_matching_task","自我","[""<img src=\""../../test_img/25.png\"" width=150 style=\""vertical-align:middle\"">---生人"",""<img src=\""../../test_img/19.png\"" width=150 style=\""vertical-align:middle\"">---自我"",""<img src=\""../../test_img/12.png\"" width=150 style=\""vertical-align:middle\"">---朋友""]","","",""
"","","","","","html-keyboard-response","180","567209","0.0-7.3-0.3-1.81","null","<span style='color:GreenYellow; font-size: 70px;'>正确! </span>","null","","","","","","","","","","","","","","","","","","","","","","","","","feedback_test","",""
"","","","","","psychophysics","181","568958","0.0-7.3-0.3-0.82","744","","arrowleft","","","","","","","","","","","","","key","arrowleft","4.166341463414804","853.3333333333334","476","arrowleft","true","../../test_img/12.png","朋友","prac_matching_task","朋友","[""<img src=\""../../test_img/25.png\"" width=150 style=\""vertical-align:middle\"">---生人"",""<img src=\""../../test_img/19.png\"" width=150 style=\""vertical-align:middle\"">---自我"",""<img src=\""../../test_img/12.png\"" width=150 style=\""vertical-align:middle\"">---朋友""]","","",""
"","","","","","html-keyboard-response","182","569265","0.0-7.3-0.3-1.82","null","<span style='color:GreenYellow; font-size: 70px;'>正确! </span>","null","","","","","","","","","","","","","","","","","","","","","","","","","feedback_test","",""
"","","","","","psychophysics","183","570890","0.0-7.3-0.3-0.83","622","","arrowleft","","","","","","","","","","","","","key","arrowleft","4.166490765171442","853.3333333333334","476","arrowleft","true","../../test_img/12.png","朋友","prac_matching_task","朋友","[""<img src=\""../../test_img/25.png\"" width=150 style=\""vertical-align:middle\"">---生人"",""<img src=\""../../test_img/19.png\"" width=150 style=\""vertical-align:middle\"">---自我"",""<img src=\""../../test_img/12.png\"" width=150 style=\""vertical-align:middle\"">---朋友""]","","",""
"","","","","","html-keyboard-response","184","571199","0.0-7.3-0.3-1.83","null","<span style='color:GreenYellow; font-size: 70px;'>正确! </span>","null","","","","","","","","","","","","","","","","","","","","","","","","","feedback_test","",""
"","","","","","psychophysics","185","572783","0.0-7.3-0.3-0.84","578","","arrowright","","","","","","","","","","","","","key","arrowright","4.166666666666667","853.3333333333334","476","arrowright","true","../../test_img/12.png","生人","prac_matching_task","朋友","[""<img src=\""../../test_img/25.png\"" width=150 style=\""vertical-align:middle\"">---生人"",""<img src=\""../../test_img/19.png\"" width=150 style=\""vertical-align:middle\"">---自我"",""<img src=\""../../test_img/12.png\"" width=150 style=\""vertical-align:middle\"">---朋友""]","","",""
"","","","","","html-keyboard-response","186","573101","0.0-7.3-0.3-1.84","null","<span style='color:GreenYellow; font-size: 70px;'>正确! </span>","null","","","","","","","","","","","","","","","","","","","","","","","","","feedback_test","",""
"","","","","","psychophysics","187","574806","0.0-7.3-0.3-0.85","701","","arrowleft","","","","","","","","","","","","","key","arrowleft","4.166498740554098","853.3333333333334","476","arrowright","false","../../test_img/19.png","朋友","prac_matching_task","自我","[""<img src=\""../../test_img/25.png\"" width=150 style=\""vertical-align:middle\"">---生人"",""<img src=\""../../test_img/19.png\"" width=150 style=\""vertical-align:middle\"">---自我"",""<img src=\""../../test_img/12.png\"" width=150 style=\""vertical-align:middle\"">---朋友""]","","",""
"","","","","","html-keyboard-response","188","575122","0.0-7.3-0.3-1.85","null","<span style='color:red; font-size: 70px;'>错误! </span>","null","","","","","","","","","","","","","","","","","","","","","","","","","feedback_test","",""
"","","","","","psychophysics","189","576788","0.0-7.3-0.3-0.86","663","","arrowleft","","","","","","","","","","","","","key","arrowleft","4.16640826873391","853.3333333333334","476","arrowleft","true","../../test_img/12.png","朋友","prac_matching_task","朋友","[""<img src=\""../../test_img/25.png\"" width=150 style=\""vertical-align:middle\"">---生人"",""<img src=\""../../test_img/19.png\"" width=150 style=\""vertical-align:middle\"">---自我"",""<img src=\""../../test_img/12.png\"" width=150 style=\""vertical-align:middle\"">---朋友""]","","",""
"","","","","","html-keyboard-response","190","577104","0.0-7.3-0.3-1.86","null","<span style='color:GreenYellow; font-size: 70px;'>正确! </span>","null","","","","","","","","","","","","","","","","","","","","","","","","","feedback_test","",""
"","","","","","psychophysics","191","578793","0.0-7.3-0.3-0.87","685","","arrowleft","","","","","","","","","","","","","key","arrowleft","4.166329113924228","853.3333333333334","476","arrowleft","true","../../test_img/19.png","自我","prac_matching_task","自我","[""<img src=\""../../test_img/25.png\"" width=150 style=\""vertical-align:middle\"">---生人"",""<img src=\""../../test_img/19.png\"" width=150 style=\""vertical-align:middle\"">---自我"",""<img src=\""../../test_img/12.png\"" width=150 style=\""vertical-align:middle\"">---朋友""]","","",""
"","","","","","html-keyboard-response","192","579096","0.0-7.3-0.3-1.87","null","<span style='color:GreenYellow; font-size: 70px;'>正确! </span>","null","","","","","","","","","","","","","","","","","","","","","","","","","feedback_test","",""
"","","","","","psychophysics","193","580676","0.0-7.3-0.3-0.88","576","","arrowright","","","","","","","","","","","","","key","arrowright","4.166043360433655","853.3333333333334","476","arrowright","true","../../test_img/19.png","生人","prac_matching_task","自我","[""<img src=\""../../test_img/25.png\"" width=150 style=\""vertical-align:middle\"">---生人"",""<img src=\""../../test_img/19.png\"" width=150 style=\""vertical-align:middle\"">---自我"",""<img src=\""../../test_img/12.png\"" width=150 style=\""vertical-align:middle\"">---朋友""]","","",""
"","","","","","html-keyboard-response","194","580980","0.0-7.3-0.3-1.88","null","<span style='color:GreenYellow; font-size: 70px;'>正确! </span>","null","","","","","","","","","","","","","","","","","","","","","","","","","feedback_test","",""
"","","","","","psychophysics","195","582639","0.0-7.3-0.3-0.89","656","","arrowleft","","","","","","","","","","","","","key","arrowleft","4.166666666666667","853.3333333333334","476","arrowleft","true","../../test_img/19.png","自我","prac_matching_task","自我","[""<img src=\""../../test_img/25.png\"" width=150 style=\""vertical-align:middle\"">---生人"",""<img src=\""../../test_img/19.png\"" width=150 style=\""vertical-align:middle\"">---自我"",""<img src=\""../../test_img/12.png\"" width=150 style=\""vertical-align:middle\"">---朋友""]","","",""
"","","","","","html-keyboard-response","196","582944","0.0-7.3-0.3-1.89","null","<span style='color:GreenYellow; font-size: 70px;'>正确! </span>","null","","","","","","","","","","","","","","","","","","","","","","","","","feedback_test","",""
"","","","","","psychophysics","197","584664","0.0-7.3-0.3-0.90","714","","arrowright","","","","","","","","","","","","","key","arrowright","4.166501240694731","853.3333333333334","476","arrowleft","false","../../test_img/25.png","生人","prac_matching_task","生人","[""<img src=\""../../test_img/25.png\"" width=150 style=\""vertical-align:middle\"">---生人"",""<img src=\""../../test_img/19.png\"" width=150 style=\""vertical-align:middle\"">---自我"",""<img src=\""../../test_img/12.png\"" width=150 style=\""vertical-align:middle\"">---朋友""]","","",""
"","","","","","html-keyboard-response","198","584972","0.0-7.3-0.3-1.90","null","<span style='color:red; font-size: 70px;'>错误! </span>","null","","","","","","","","","","","","","","","","","","","","","","","","","feedback_test","",""
"","","","","","psychophysics","199","586646","0.0-7.3-0.3-0.91","672","","arrowright","","","","","","","","","","","","","key","arrowright","4.166836734693937","853.3333333333334","476","arrowright","true","../../test_img/12.png","自我","prac_matching_task","朋友","[""<img src=\""../../test_img/25.png\"" width=150 style=\""vertical-align:middle\"">---生人"",""<img src=\""../../test_img/19.png\"" width=150 style=\""vertical-align:middle\"">---自我"",""<img src=\""../../test_img/12.png\"" width=150 style=\""vertical-align:middle\"">---朋友""]","","",""
"","","","","","html-keyboard-response","200","586949","0.0-7.3-0.3-1.91","null","<span style='color:GreenYellow; font-size: 70px;'>正确! </span>","null","","","","","","","","","","","","","","","","","","","","","","","","","feedback_test","",""
"","","","","","psychophysics","201","588704","0.0-7.3-0.3-0.92","751","","arrowleft","","","","","","","","","","","","","key","arrowleft","4.16642335766429","853.3333333333334","476","arrowright","false","../../test_img/25.png","朋友","prac_matching_task","生人","[""<img src=\""../../test_img/25.png\"" width=150 style=\""vertical-align:middle\"">---生人"",""<img src=\""../../test_img/19.png\"" width=150 style=\""vertical-align:middle\"">---自我"",""<img src=\""../../test_img/12.png\"" width=150 style=\""vertical-align:middle\"">---朋友""]","","",""
"","","","","","html-keyboard-response","202","589007","0.0-7.3-0.3-1.92","null","<span style='color:red; font-size: 70px;'>错误! </span>","null","","","","","","","","","","","","","","","","","","","","","","","","","feedback_test","",""
"","","","","","psychophysics","203","590789","0.0-7.3-0.3-0.93","778","","arrowleft","","","","","","","","","","","","","key","arrowleft","4.16682577565638","853.3333333333334","476","arrowleft","true","../../test_img/25.png","生人","prac_matching_task","生人","[""<img src=\""../../test_img/25.png\"" width=150 style=\""vertical-align:middle\"">---生人"",""<img src=\""../../test_img/19.png\"" width=150 style=\""vertical-align:middle\"">---自我"",""<img src=\""../../test_img/12.png\"" width=150 style=\""vertical-align:middle\"">---朋友""]","","",""
"","","","","","html-keyboard-response","204","591104","0.0-7.3-0.3-1.93","null","<span style='color:GreenYellow; font-size: 70px;'>正确! </span>","null","","","","","","","","","","","","","","","","","","","","","","","","","feedback_test","",""
"","","","","","psychophysics","205","592930","0.0-7.3-0.3-0.94","823","","arrowleft","","","","","","","","","","","","","key","arrowleft","4.16643356643335","853.3333333333334","476","arrowright","false","../../test_img/25.png","自我","prac_matching_task","生人","[""<img src=\""../../test_img/25.png\"" width=150 style=\""vertical-align:middle\"">---生人"",""<img src=\""../../test_img/19.png\"" width=150 style=\""vertical-align:middle\"">---自我"",""<img src=\""../../test_img/12.png\"" width=150 style=\""vertical-align:middle\"">---朋友""]","","",""
"","","","","","html-keyboard-response","206","593238","0.0-7.3-0.3-1.94","null","<span style='color:red; font-size: 70px;'>错误! </span>","null","","","","","","","","","","","","","","","","","","","","","","","","","feedback_test","",""
"","","","","","psychophysics","207","594816","0.0-7.3-0.3-0.95","576","","arrowleft","","","","","","","","","","","","","key","arrowleft","4.166212534059945","853.3333333333334","476","arrowleft","true","../../test_img/12.png","朋友","prac_matching_task","朋友","[""<img src=\""../../test_img/25.png\"" width=150 style=\""vertical-align:middle\"">---生人"",""<img src=\""../../test_img/19.png\"" width=150 style=\""vertical-align:middle\"">---自我"",""<img src=\""../../test_img/12.png\"" width=150 style=\""vertical-align:middle\"">---朋友""]","","",""
"","","","","","html-keyboard-response","208","595121","0.0-7.3-0.3-1.95","null","<span style='color:GreenYellow; font-size: 70px;'>正确! </span>","null","","","","","","","","","","","","","","","","","","","","","","","","","feedback_test","",""
"","","","","","html-keyboard-response","209","600598","0.0-8.0","5474","<style>.context{color:white; font-size: 35px; line-height:40px}</style>                          <div><p class='context'>您正确回答了75% 的试次。</p ><p class='context'>您的平均反应时为668毫秒。</p ><p class='context'>恭喜您完成练习。按任意键进入知觉匹配任务正式实验。</p ><p style = 'color:lightgreen; font-size: 35px;' >正式实验与练习要求相同，请您尽可能又快又准地进行按键反应</p><p class='footer' style='font-size: 22px; line-height:40px;'>请将您右手的<span style='color: lightgreen;'>食指与无名指</span>放在电脑键盘的相应键位上进行按键。</p >","arrowleft","","","","","","","","","","","","","","","","","","","","","","","","","","",""
"","","","","","psychophysics","210","602600","0.0-9.0-0.0-0.0-0.0-0.0","990","","arrowright","","","","","","","","","","","","","key","arrowright","4.166311300639659","853.3333333333334","476","arrowright","true","../../test_img/25.png","自我","matching_task","生人","[""<img src=\""../../test_img/25.png\"" width=150 style=\""vertical-align:middle\"">---生人"",""<img src=\""../../test_img/19.png\"" width=150 style=\""vertical-align:middle\"">---自我"",""<img src=\""../../test_img/12.png\"" width=150 style=\""vertical-align:middle\"">---朋友""]","","",""
"","","","","","html-keyboard-response","211","603115","0.0-9.0-0.0-0.0-0.0-1.0","null","<span style='color:GreenYellow; font-size: 70px;'>正确! </span>","null","","","","","","","","","","","","","","","","","","","","","","","","","feedback_test","",""
"","","","","","psychophysics","212","604789","0.0-9.0-0.0-0.0-0.0-0.1","671","","arrowleft","","","","","","","","","","","","","key","arrowleft","4.166412213740221","853.3333333333334","476","arrowleft","true","../../test_img/12.png","朋友","matching_task","朋友","[""<img src=\""../../test_img/25.png\"" width=150 style=\""vertical-align:middle\"">---生人"",""<img src=\""../../test_img/19.png\"" width=150 style=\""vertical-align:middle\"">---自我"",""<img src=\""../../test_img/12.png\"" width=150 style=\""vertical-align:middle\"">---朋友""]","","",""
"","","","","","html-keyboard-response","213","605309","0.0-9.0-0.0-0.0-0.0-1.1","null","<span style='color:GreenYellow; font-size: 70px;'>正确! </span>","null","","","","","","","","","","","","","","","","","","","","","","","","","feedback_test","",""
"","","","","","psychophysics","214","607186","0.0-9.0-0.0-0.0-0.0-0.2","873","","arrowleft","","","","","","","","","","","","","key","arrowleft","4.166818181818234","853.3333333333334","476","arrowright","false","../../test_img/19.png","朋友","matching_task","自我","[""<img src=\""../../test_img/25.png\"" width=150 style=\""vertical-align:middle\"">---生人"",""<img src=\""../../test_img/19.png\"" width=150 style=\""vertical-align:middle\"">---自我"",""<img src=\""../../test_img/12.png\"" width=150 style=\""vertical-align:middle\"">---朋友""]","","",""
"","","","","","html-keyboard-response","215","607694","0.0-9.0-0.0-0.0-0.0-1.2","null","<span style='color:red; font-size: 70px;'>错误! </span>","null","","","","","","","","","","","","","","","","","","","","","","","","","feedback_test","",""
"","","","","","psychophysics","216","609403","0.0-9.0-0.0-0.0-0.0-0.3","706","","arrowleft","","","","","","","","","","","","","key","arrowleft","4.176004987531121","853.3333333333334","476","arrowleft","true","../../test_img/19.png","自我","matching_task","自我","[""<img src=\""../../test_img/25.png\"" width=150 style=\""vertical-align:middle\"">---生人"",""<img src=\""../../test_img/19.png\"" width=150 style=\""vertical-align:middle\"">---自我"",""<img src=\""../../test_img/12.png\"" width=150 style=\""vertical-align:middle\"">---朋友""]","","",""
"","","","","","html-keyboard-response","217","609905","0.0-9.0-0.0-0.0-0.0-1.3","null","<span style='color:GreenYellow; font-size: 70px;'>正确! </span>","null","","","","","","","","","","","","","","","","","","","","","","","","","feedback_test","",""
"","","","","","psychophysics","218","611636","0.0-9.0-0.0-0.0-0.0-0.4","727","","arrowright","","","","","","","","","","","","","key","arrowright","4.166915422885804","853.3333333333334","476","arrowright","true","../../test_img/12.png","生人","matching_task","朋友","[""<img src=\""../../test_img/25.png\"" width=150 style=\""vertical-align:middle\"">---生人"",""<img src=\""../../test_img/19.png\"" width=150 style=\""vertical-align:middle\"">---自我"",""<img src=\""../../test_img/12.png\"" width=150 style=\""vertical-align:middle\"">---朋友""]","","",""
"","","","","","html-keyboard-response","219","612151","0.0-9.0-0.0-0.0-0.0-1.4","null","<span style='color:GreenYellow; font-size: 70px;'>正确! </span>","null","","","","","","","","","","","","","","","","","","","","","","","","","feedback_test","",""
"","","","","","psychophysics","220","613933","0.0-9.0-0.0-0.0-0.0-0.5","780","","arrowleft","","","","","","","","","","","","","key","arrowleft","4.166506024096329","853.3333333333334","476","arrowleft","true","../../test_img/19.png","自我","matching_task","自我","[""<img src=\""../../test_img/25.png\"" width=150 style=\""vertical-align:middle\"">---生人"",""<img src=\""../../test_img/19.png\"" width=150 style=\""vertical-align:middle\"">---自我"",""<img src=\""../../test_img/12.png\"" width=150 style=\""vertical-align:middle\"">---朋友""]","","",""
"","","","","","html-keyboard-response","221","614450","0.0-9.0-0.0-0.0-0.0-1.5","null","<span style='color:GreenYellow; font-size: 70px;'>正确! </span>","null","","","","","","","","","","","","","","","","","","","","","","","","","feedback_test","",""
"","","","","","psychophysics","222","616129","0.0-9.0-0.0-0.0-0.0-0.6","675","","arrowright","","","","","","","","","","","","","key","arrowright","4.166751918158746","853.3333333333334","476","arrowleft","false","../../test_img/25.png","生人","matching_task","生人","[""<img src=\""../../test_img/25.png\"" width=150 style=\""vertical-align:middle\"">---生人"",""<img src=\""../../test_img/19.png\"" width=150 style=\""vertical-align:middle\"">---自我"",""<img src=\""../../test_img/12.png\"" width=150 style=\""vertical-align:middle\"">---朋友""]","","",""
"","","","","","html-keyboard-response","223","616649","0.0-9.0-0.0-0.0-0.0-1.6","null","<span style='color:red; font-size: 70px;'>错误! </span>","null","","","","","","","","","","","","","","","","","","","","","","","","","feedback_test","",""
"","","","","","psychophysics","224","618342","0.0-9.0-0.0-0.0-0.0-0.7","690","","arrowright","","","","","","","","","","","","","key","arrowright","4.166246851385391","853.3333333333334","476","arrowright","true","../../test_img/12.png","自我","matching_task","朋友","[""<img src=\""../../test_img/25.png\"" width=150 style=\""vertical-align:middle\"">---生人"",""<img src=\""../../test_img/19.png\"" width=150 style=\""vertical-align:middle\"">---自我"",""<img src=\""../../test_img/12.png\"" width=150 style=\""vertical-align:middle\"">---朋友""]","","",""
"","","","","","html-keyboard-response","225","618849","0.0-9.0-0.0-0.0-0.0-1.7","null","<span style='color:GreenYellow; font-size: 70px;'>正确! </span>","null","","","","","","","","","","","","","","","","","","","","","","","","","feedback_test","",""
"","","","","","psychophysics","226","620727","0.0-9.0-0.0-0.0-0.0-0.8","866","","arrowright","","","","","","","","","","","","","key","arrowright","4.166132723112075","853.3333333333334","476","arrowright","true","../../test_img/25.png","朋友","matching_task","生人","[""<img src=\""../../test_img/25.png\"" width=150 style=\""vertical-align:middle\"">---生人"",""<img src=\""../../test_img/19.png\"" width=150 style=\""vertical-align:middle\"">---自我"",""<img src=\""../../test_img/12.png\"" width=150 style=\""vertical-align:middle\"">---朋友""]","","",""
"","","","","","html-keyboard-response","227","621248","0.0-9.0-0.0-0.0-0.0-1.8","null","<span style='color:GreenYellow; font-size: 70px;'>正确! </span>","null","","","","","","","","","","","","","","","","","","","","","","","","","feedback_test","",""
"","","","","","psychophysics","228","623126","0.0-9.0-0.0-0.0-0.0-0.9","875","","arrowright","","","","","","","","","","","","","key","arrowright","4.16628701594533","853.3333333333334","476","arrowright","true","../../test_img/19.png","生人","matching_task","自我","[""<img src=\""../../test_img/25.png\"" width=150 style=\""vertical-align:middle\"">---生人"",""<img src=\""../../test_img/19.png\"" width=150 style=\""vertical-align:middle\"">---自我"",""<img src=\""../../test_img/12.png\"" width=150 style=\""vertical-align:middle\"">---朋友""]","","",""
"","","","","","html-keyboard-response","229","623648","0.0-9.0-0.0-0.0-0.0-1.9","null","<span style='color:GreenYellow; font-size: 70px;'>正确! </span>","null","","","","","","","","","","","","","","","","","","","","","","","","","feedback_test","",""
"","","","","","psychophysics","230","625360","0.0-9.0-0.0-0.0-0.0-0.10","710","","arrowleft","","","","","","","","","","","","","key","arrowleft","4.166666666666667","853.3333333333334","476","arrowleft","true","../../test_img/12.png","朋友","matching_task","朋友","[""<img src=\""../../test_img/25.png\"" width=150 style=\""vertical-align:middle\"">---生人"",""<img src=\""../../test_img/19.png\"" width=150 style=\""vertical-align:middle\"">---自我"",""<img src=\""../../test_img/12.png\"" width=150 style=\""vertical-align:middle\"">---朋友""]","","",""
"","","","","","html-keyboard-response","231","625863","0.0-9.0-0.0-0.0-0.0-1.10","null","<span style='color:GreenYellow; font-size: 70px;'>正确! </span>","null","","","","","","","","","","","","","","","","","","","","","","","","","feedback_test","",""
"","","","","","psychophysics","232","627567","0.0-9.0-0.0-0.0-0.0-0.11","702","","arrowleft","","","","","","","","","","","","","key","arrowleft","4.17713567839196","853.3333333333334","476","arrowleft","true","../../test_img/25.png","生人","matching_task","生人","[""<img src=\""../../test_img/25.png\"" width=150 style=\""vertical-align:middle\"">---生人"",""<img src=\""../../test_img/19.png\"" width=150 style=\""vertical-align:middle\"">---自我"",""<img src=\""../../test_img/12.png\"" width=150 style=\""vertical-align:middle\"">---朋友""]","","",""
"","","","","","html-keyboard-response","233","628074","0.0-9.0-0.0-0.0-0.0-1.11","null","<span style='color:GreenYellow; font-size: 70px;'>正确! </span>","null","","","","","","","","","","","","","","","","","","","","","","","","","feedback_test","",""
"","","","","","psychophysics","234","629714","0.0-9.0-0.0-0.0-0.0-0.12","624","","arrowleft","","","","","","","","","","","","","key","arrowleft","4.166931216931156","853.3333333333334","476","arrowright","false","../../test_img/19.png","生人","matching_task","自我","[""<img src=\""../../test_img/25.png\"" width=150 style=\""vertical-align:middle\"">---生人"",""<img src=\""../../test_img/19.png\"" width=150 style=\""vertical-align:middle\"">---自我"",""<img src=\""../../test_img/12.png\"" width=150 style=\""vertical-align:middle\"">---朋友""]","","",""
"","","","","","html-keyboard-response","235","630229","0.0-9.0-0.0-0.0-0.0-1.12","null","<span style='color:red; font-size: 70px;'>错误! </span>","null","","","","","","","","","","","","","","","","","","","","","","","","","feedback_test","",""
"","","","","","psychophysics","236","632065","0.0-9.0-0.0-0.0-0.0-0.13","834","","arrowright","","","","","","","","","","","","","key","arrowright","4.166046511627961","853.3333333333334","476","arrowright","true","../../test_img/25.png","自我","matching_task","生人","[""<img src=\""../../test_img/25.png\"" width=150 style=\""vertical-align:middle\"">---生人"",""<img src=\""../../test_img/19.png\"" width=150 style=\""vertical-align:middle\"">---自我"",""<img src=\""../../test_img/12.png\"" width=150 style=\""vertical-align:middle\"">---朋友""]","","",""
"","","","","","html-keyboard-response","237","632574","0.0-9.0-0.0-0.0-0.0-1.13","null","<span style='color:GreenYellow; font-size: 70px;'>正确! </span>","null","","","","","","","","","","","","","","","","","","","","","","","","","feedback_test","",""
"","","","","","psychophysics","238","634274","0.0-9.0-0.0-0.0-0.0-0.14","698","","arrowleft","","","","","","","","","","","","","key","arrowleft","4.166750629722805","853.3333333333334","476","arrowleft","true","../../test_img/12.png","朋友","matching_task","朋友","[""<img src=\""../../test_img/25.png\"" width=150 style=\""vertical-align:middle\"">---生人"",""<img src=\""../../test_img/19.png\"" width=150 style=\""vertical-align:middle\"">---自我"",""<img src=\""../../test_img/12.png\"" width=150 style=\""vertical-align:middle\"">---朋友""]","","",""
"","","","","","html-keyboard-response","239","634787","0.0-9.0-0.0-0.0-0.0-1.14","null","<span style='color:GreenYellow; font-size: 70px;'>正确! </span>","null","","","","","","","","","","","","","","","","","","","","","","","","","feedback_test","",""
"","","","","","psychophysics","240","636556","0.0-9.0-0.0-0.0-0.0-0.15","767","","arrowright","","","","","","","","","","","","","key","arrowright","4.166666666666667","853.3333333333334","476","arrowright","true","../../test_img/12.png","生人","matching_task","朋友","[""<img src=\""../../test_img/25.png\"" width=150 style=\""vertical-align:middle\"">---生人"",""<img src=\""../../test_img/19.png\"" width=150 style=\""vertical-align:middle\"">---自我"",""<img src=\""../../test_img/12.png\"" width=150 style=\""vertical-align:middle\"">---朋友""]","","",""
"","","","","","html-keyboard-response","241","637057","0.0-9.0-0.0-0.0-0.0-1.15","null","<span style='color:GreenYellow; font-size: 70px;'>正确! </span>","null","","","","","","","","","","","","","","","","","","","","","","","","","feedback_test","",""
"","","","","","psychophysics","242","639010","0.0-9.0-0.0-0.0-0.0-0.16","951","","arrowright","","","","","","","","","","","","","key","arrowright","4.166230936819273","853.3333333333334","476","arrowright","true","../../test_img/19.png","朋友","matching_task","自我","[""<img src=\""../../test_img/25.png\"" width=150 style=\""vertical-align:middle\"">---生人"",""<img src=\""../../test_img/19.png\"" width=150 style=\""vertical-align:middle\"">---自我"",""<img src=\""../../test_img/12.png\"" width=150 style=\""vertical-align:middle\"">---朋友""]","","",""
"","","","","","html-keyboard-response","243","639521","0.0-9.0-0.0-0.0-0.0-1.16","null","<span style='color:GreenYellow; font-size: 70px;'>正确! </span>","null","","","","","","","","","","","","","","","","","","","","","","","","","feedback_test","",""
"","","","","","psychophysics","244","641263","0.0-9.0-0.0-0.0-0.0-0.17","729","","arrowright","","","","","","","","","","","","","key","arrowright","4.166831683168087","853.3333333333334","476","arrowleft","false","../../test_img/25.png","生人","matching_task","生人","[""<img src=\""../../test_img/25.png\"" width=150 style=\""vertical-align:middle\"">---生人"",""<img src=\""../../test_img/19.png\"" width=150 style=\""vertical-align:middle\"">---自我"",""<img src=\""../../test_img/12.png\"" width=150 style=\""vertical-align:middle\"">---朋友""]","","",""
"","","","","","html-keyboard-response","245","641779","0.0-9.0-0.0-0.0-0.0-1.17","null","<span style='color:red; font-size: 70px;'>错误! </span>","null","","","","","","","","","","","","","","","","","","","","","","","","","feedback_test","",""
"","","","","","psychophysics","246","643540","0.0-9.0-0.0-0.0-0.0-0.18","757","","arrowright","","","","","","","","","","","","","key","arrowright","4.16642335766429","853.3333333333334","476","arrowright","true","../../test_img/25.png","朋友","matching_task","生人","[""<img src=\""../../test_img/25.png\"" width=150 style=\""vertical-align:middle\"">---生人"",""<img src=\""../../test_img/19.png\"" width=150 style=\""vertical-align:middle\"">---自我"",""<img src=\""../../test_img/12.png\"" width=150 style=\""vertical-align:middle\"">---朋友""]","","",""
"","","","","","html-keyboard-response","247","644062","0.0-9.0-0.0-0.0-0.0-1.18","null","<span style='color:GreenYellow; font-size: 70px;'>正确! </span>","null","","","","","","","","","","","","","","","","","","","","","","","","","feedback_test","",""
"","","","","","psychophysics","248","645651","0.0-9.0-0.0-0.0-0.0-0.19","584","","arrowright","","","","","","","","","","","","","key","arrowright","4.166307277627907","853.3333333333334","476","arrowleft","false","../../test_img/12.png","朋友","matching_task","朋友","[""<img src=\""../../test_img/25.png\"" width=150 style=\""vertical-align:middle\"">---生人"",""<img src=\""../../test_img/19.png\"" width=150 style=\""vertical-align:middle\"">---自我"",""<img src=\""../../test_img/12.png\"" width=150 style=\""vertical-align:middle\"">---朋友""]","","",""
"","","","","","html-keyboard-response","249","646160","0.0-9.0-0.0-0.0-0.0-1.19","null","<span style='color:red; font-size: 70px;'>错误! </span>","null","","","","","","","","","","","","","","","","","","","","","","","","","feedback_test","",""
"","","","","","psychophysics","250","647875","0.0-9.0-0.0-0.0-0.0-0.20","701","","arrowright","","","","","","","","","","","","","key","arrowright","4.166416040100309","853.3333333333334","476","arrowleft","false","../../test_img/25.png","生人","matching_task","生人","[""<img src=\""../../test_img/25.png\"" width=150 style=\""vertical-align:middle\"">---生人"",""<img src=\""../../test_img/19.png\"" width=150 style=\""vertical-align:middle\"">---自我"",""<img src=\""../../test_img/12.png\"" width=150 style=\""vertical-align:middle\"">---朋友""]","","",""
"","","","","","html-keyboard-response","251","648387","0.0-9.0-0.0-0.0-0.0-1.20","null","<span style='color:red; font-size: 70px;'>错误! </span>","null","","","","","","","","","","","","","","","","","","","","","","","","","feedback_test","",""
"","","","","","psychophysics","252","650106","0.0-9.0-0.0-0.0-0.0-0.21","716","","arrowright","","","","","","","","","","","","","key","arrowright","4.17711442786087","853.3333333333334","476","arrowright","true","../../test_img/12.png","自我","matching_task","朋友","[""<img src=\""../../test_img/25.png\"" width=150 style=\""vertical-align:middle\"">---生人"",""<img src=\""../../test_img/19.png\"" width=150 style=\""vertical-align:middle\"">---自我"",""<img src=\""../../test_img/12.png\"" width=150 style=\""vertical-align:middle\"">---朋友""]","","",""
"","","","","","html-keyboard-response","253","650616","0.0-9.0-0.0-0.0-0.0-1.21","null","<span style='color:GreenYellow; font-size: 70px;'>正确! </span>","null","","","","","","","","","","","","","","","","","","","","","","","","","feedback_test","",""
"","","","","","psychophysics","254","652385","0.0-9.0-0.0-0.0-0.0-0.22","765","","arrowleft","","","","","","","","","","","","","key","arrowleft","4.176570048309123","853.3333333333334","476","arrowleft","true","../../test_img/19.png","自我","matching_task","自我","[""<img src=\""../../test_img/25.png\"" width=150 style=\""vertical-align:middle\"">---生人"",""<img src=\""../../test_img/19.png\"" width=150 style=\""vertical-align:middle\"">---自我"",""<img src=\""../../test_img/12.png\"" width=150 style=\""vertical-align:middle\"">---朋友""]","","",""
"","","","","","html-keyboard-response","255","652898","0.0-9.0-0.0-0.0-0.0-1.22","null","<span style='color:GreenYellow; font-size: 70px;'>正确! </span>","null","","","","","","","","","","","","","","","","","","","","","","","","","feedback_test","",""
