"success","timeout","failed_images","failed_audio","failed_video","trial_type","trial_index","time_elapsed","internal_node_id","rt","stimulus","response","value","item_width_mm","item_height_mm","item_width_px","px2mm","view_dist_mm","item_width_deg","px2deg","scale_factor","win_width_deg","win_height_deg","view_history","response_type","key_press","avg_frame_time","center_x","center_y","correct_response","correct","Image","word","condition","shape","association","screen_id","LeftLable","RightLable"
"true","false","[]","[]","[]","preload","0","757","0.0-0.0","","","","","","","","","","","","","","","","","","","","","","","","","","","","","",""
"","","","","","html-keyboard-response","1","259120","0.0-1.0","258362","
     <p>您好，欢迎参加本次实验。</p>
     <p>为充分保障您的权利，请确保您已经知晓并同意《参与实验同意书》以及《数据公开知情同意书》。</p>
     <p>如果您未见过上述内容，请咨询实验员。</p>
     <p>如果您选择继续实验，则表示您已经清楚两份知情同意书的内容并同意。</p>
     <p> <div style = ""color: green""><按任意键至下页></div> </p>
     "," ","","","","","","","","","","","","","","","","","","","","","","","","","","",""
"","","","","","html-keyboard-response","2","260179","0.0-2.0","1056","
     <p>本实验首先需要您填写一些基本个人信息。</p>
     <p> <div style = ""color: green""><按任意键至下页></div></p>
     "," ","","","","","","","","","","","","","","","","","","","","","","","","","","",""
"","","","","","call-function","3","260181","0.0-3.0-0.0","","","","","","","","","","","","","","","","","","","","","","","","","","","","","",""
"","","","","","survey-html-form","4","264529","0.0-3.0-1.0","4339","","{""Q0"":""01""}","","","","","","","","","","","","","","","","","","","","","","","","","","",""
"","","","","","html-button-response","5","265707","0.0-3.0-2.0","1174","<p style = 'color : white'>您的性别</p>","1","","","","","","","","","","","","","","","","","","","","","","","","","","",""
"","","","","","survey-html-form","6","269269","0.0-3.0-3.0","3559","","{""Q0"":""2001""}","","","","","","","","","","","","","","","","","","","","","","","","","","",""
"","","","","","survey-html-form","7","271940","0.0-3.0-4.0","2670","","{""Q0"":""6""}","","","","","","","","","","","","","","","","","","","","","","","","","","",""
"","","","","","virtual-chinrest","8","354454","0.0-4.0","82510","","","","85.6","53.98","405.7541996033289","4.737231772018561","603.36","8.115083992066578","50","0.9710312311867135","29.08","16.62","","","","","","","","","","","","","","","",""
"true","","","","","fullscreen","9","357850","0.0-5.0","","","","","","","","","","","","","","","","","","","","","","","","","","","","","",""
"","","","","","instructions","10","400374","0.0-6.0","42522","","","","","","","","","","","","","","[{""page_index"":0,""viewing_time"":7594},{""page_index"":1,""viewing_time"":12175},{""page_index"":2,""viewing_time"":16833},{""page_index"":3,""viewing_time"":3393},{""page_index"":4,""viewing_time"":2527}]","","","","","","","","","","","","","","",""
"","","","","","psychophysics","11","402881","0.0-7.0-0.0-0.0","null","","null","","","","","","","","","","","","","key","null","16.664429530201343","735","455.5","arrowright","false","../../test_img/25.png","朋友","prac_matching_task","朋友","[""<img src=\""../../test_img/12.png\"" width=150 style=\""vertical-align:middle\"">---自我"",""<img src=\""../../test_img/19.png\"" width=150 style=\""vertical-align:middle\"">---生人"",""<img src=\""../../test_img/25.png\"" width=150 style=\""vertical-align:middle\"">---朋友""]","","",""
"","","","","","html-keyboard-response","12","403183","0.0-7.0-0.0-1.0","null","<span class='add_' style='color:yellow; font-size: 70px;'> 太慢! </span>","null","","","","","","","","","","","","","","","","","","","","","","","","","feedback_test","",""
"","","","","","psychophysics","13","404867","0.0-7.0-0.0-0.1","681","","arrowleft","","","","","","","","","","","","","key","arrowleft","16.666999999999533","735","455.5","arrowright","false","../../test_img/19.png","生人","prac_matching_task","生人","[""<img src=\""../../test_img/12.png\"" width=150 style=\""vertical-align:middle\"">---自我"",""<img src=\""../../test_img/19.png\"" width=150 style=\""vertical-align:middle\"">---生人"",""<img src=\""../../test_img/25.png\"" width=150 style=\""vertical-align:middle\"">---朋友""]","","",""
"","","","","","html-keyboard-response","14","405170","0.0-7.0-0.0-1.1","null","<span style='color:red; font-size: 70px;'>错误! </span>","null","","","","","","","","","","","","","","","","","","","","","","","","","feedback_test","",""
"","","","","","psychophysics","15","406898","0.0-7.0-0.0-0.2","726","","arrowright","","","","","","","","","","","","","key","arrowright","16.66504854368932","735","455.5","arrowright","true","../../test_img/12.png","自我","prac_matching_task","自我","[""<img src=\""../../test_img/12.png\"" width=150 style=\""vertical-align:middle\"">---自我"",""<img src=\""../../test_img/19.png\"" width=150 style=\""vertical-align:middle\"">---生人"",""<img src=\""../../test_img/25.png\"" width=150 style=\""vertical-align:middle\"">---朋友""]","","",""
"","","","","","html-keyboard-response","16","407200","0.0-7.0-0.0-1.2","null","<span style='color:GreenYellow; font-size: 70px;'>正确! </span>","null","","","","","","","","","","","","","","","","","","","","","","","","","feedback_test","",""
"","","","","","psychophysics","17","408977","0.0-7.0-0.0-0.3","776","","arrowleft","","","","","","","","","","","","","key","arrowleft","16.665714285713953","735","455.5","arrowleft","true","../../test_img/19.png","自我","prac_matching_task","生人","[""<img src=\""../../test_img/12.png\"" width=150 style=\""vertical-align:middle\"">---自我"",""<img src=\""../../test_img/19.png\"" width=150 style=\""vertical-align:middle\"">---生人"",""<img src=\""../../test_img/25.png\"" width=150 style=\""vertical-align:middle\"">---朋友""]","","",""
"","","","","","html-keyboard-response","18","409278","0.0-7.0-0.0-1.3","null","<span style='color:GreenYellow; font-size: 70px;'>正确! </span>","null","","","","","","","","","","","","","","","","","","","","","","","","","feedback_test","",""
"","","","","","psychophysics","19","411038","0.0-7.0-0.0-0.4","758","","arrowleft","","","","","","","","","","","","","key","arrowleft","16.673076923076923","735","455.5","arrowleft","true","../../test_img/25.png","自我","prac_matching_task","朋友","[""<img src=\""../../test_img/12.png\"" width=150 style=\""vertical-align:middle\"">---自我"",""<img src=\""../../test_img/19.png\"" width=150 style=\""vertical-align:middle\"">---生人"",""<img src=\""../../test_img/25.png\"" width=150 style=\""vertical-align:middle\"">---朋友""]","","",""
"","","","","","html-keyboard-response","20","411341","0.0-7.0-0.0-1.4","null","<span style='color:GreenYellow; font-size: 70px;'>正确! </span>","null","","","","","","","","","","","","","","","","","","","","","","","","","feedback_test","",""
"","","","","","psychophysics","21","413082","0.0-7.0-0.0-0.5","738","","arrowleft","","","","","","","","","","","","","key","arrowleft","16.661165048543463","735","455.5","arrowleft","true","../../test_img/19.png","朋友","prac_matching_task","生人","[""<img src=\""../../test_img/12.png\"" width=150 style=\""vertical-align:middle\"">---自我"",""<img src=\""../../test_img/19.png\"" width=150 style=\""vertical-align:middle\"">---生人"",""<img src=\""../../test_img/25.png\"" width=150 style=\""vertical-align:middle\"">---朋友""]","","",""
"","","","","","html-keyboard-response","22","413384","0.0-7.0-0.0-1.5","null","<span style='color:GreenYellow; font-size: 70px;'>正确! </span>","null","","","","","","","","","","","","","","","","","","","","","","","","","feedback_test","",""
"","","","","","psychophysics","23","415073","0.0-7.0-0.0-0.6","686","","arrowleft","","","","","","","","","","","","","key","arrowleft","16.67","735","455.5","arrowleft","true","../../test_img/12.png","生人","prac_matching_task","自我","[""<img src=\""../../test_img/12.png\"" width=150 style=\""vertical-align:middle\"">---自我"",""<img src=\""../../test_img/19.png\"" width=150 style=\""vertical-align:middle\"">---生人"",""<img src=\""../../test_img/25.png\"" width=150 style=\""vertical-align:middle\"">---朋友""]","","",""
"","","","","","html-keyboard-response","24","415375","0.0-7.0-0.0-1.6","null","<span style='color:GreenYellow; font-size: 70px;'>正确! </span>","null","","","","","","","","","","","","","","","","","","","","","","","","","feedback_test","",""
"","","","","","psychophysics","25","417250","0.0-7.0-0.0-0.7","871","","arrowright","","","","","","","","","","","","","key","arrowright","16.66576576576545","735","455.5","arrowright","true","../../test_img/12.png","自我","prac_matching_task","自我","[""<img src=\""../../test_img/12.png\"" width=150 style=\""vertical-align:middle\"">---自我"",""<img src=\""../../test_img/19.png\"" width=150 style=\""vertical-align:middle\"">---生人"",""<img src=\""../../test_img/25.png\"" width=150 style=\""vertical-align:middle\"">---朋友""]","","",""
"","","","","","html-keyboard-response","26","417551","0.0-7.0-0.0-1.7","null","<span style='color:GreenYellow; font-size: 70px;'>正确! </span>","null","","","","","","","","","","","","","","","","","","","","","","","","","feedback_test","",""
"","","","","","psychophysics","27","419515","0.0-7.0-0.0-0.8","963","","arrowright","","","","","","","","","","","","","key","arrowright","16.665811965812164","735","455.5","arrowright","true","../../test_img/19.png","生人","prac_matching_task","生人","[""<img src=\""../../test_img/12.png\"" width=150 style=\""vertical-align:middle\"">---自我"",""<img src=\""../../test_img/19.png\"" width=150 style=\""vertical-align:middle\"">---生人"",""<img src=\""../../test_img/25.png\"" width=150 style=\""vertical-align:middle\"">---朋友""]","","",""
"","","","","","html-keyboard-response","28","419817","0.0-7.0-0.0-1.8","null","<span style='color:GreenYellow; font-size: 70px;'>正确! </span>","null","","","","","","","","","","","","","","","","","","","","","","","","","feedback_test","",""
"","","","","","psychophysics","29","421549","0.0-7.0-0.0-0.9","729","","arrowleft","","","","","","","","","","","","","key","arrowleft","16.66990291262136","735","455.5","arrowright","false","../../test_img/25.png","朋友","prac_matching_task","朋友","[""<img src=\""../../test_img/12.png\"" width=150 style=\""vertical-align:middle\"">---自我"",""<img src=\""../../test_img/19.png\"" width=150 style=\""vertical-align:middle\"">---生人"",""<img src=\""../../test_img/25.png\"" width=150 style=\""vertical-align:middle\"">---朋友""]","","",""
"","","","","","html-keyboard-response","30","421850","0.0-7.0-0.0-1.9","null","<span style='color:red; font-size: 70px;'>错误! </span>","null","","","","","","","","","","","","","","","","","","","","","","","","","feedback_test","",""
"","","","","","psychophysics","31","423561","0.0-7.0-0.0-0.10","709","","arrowleft","","","","","","","","","","","","","key","arrowleft","16.669306930692837","735","455.5","arrowleft","true","../../test_img/25.png","生人","prac_matching_task","朋友","[""<img src=\""../../test_img/12.png\"" width=150 style=\""vertical-align:middle\"">---自我"",""<img src=\""../../test_img/19.png\"" width=150 style=\""vertical-align:middle\"">---生人"",""<img src=\""../../test_img/25.png\"" width=150 style=\""vertical-align:middle\"">---朋友""]","","",""
"","","","","","html-keyboard-response","32","423863","0.0-7.0-0.0-1.10","null","<span style='color:GreenYellow; font-size: 70px;'>正确! </span>","null","","","","","","","","","","","","","","","","","","","","","","","","","feedback_test","",""
"","","","","","psychophysics","33","425701","0.0-7.0-0.0-0.11","835","","arrowleft","","","","","","","","","","","","","key","arrowleft","16.673394495413056","735","455.5","arrowleft","true","../../test_img/12.png","朋友","prac_matching_task","自我","[""<img src=\""../../test_img/12.png\"" width=150 style=\""vertical-align:middle\"">---自我"",""<img src=\""../../test_img/19.png\"" width=150 style=\""vertical-align:middle\"">---生人"",""<img src=\""../../test_img/25.png\"" width=150 style=\""vertical-align:middle\"">---朋友""]","","",""
"","","","","","html-keyboard-response","34","426003","0.0-7.0-0.0-1.11","null","<span style='color:GreenYellow; font-size: 70px;'>正确! </span>","null","","","","","","","","","","","","","","","","","","","","","","","","","feedback_test","",""
"","","","","","psychophysics","35","427799","0.0-7.0-0.0-0.12","794","","arrowleft","","","","","","","","","","","","","key","arrowleft","16.666037735848835","735","455.5","arrowleft","true","../../test_img/12.png","生人","prac_matching_task","自我","[""<img src=\""../../test_img/12.png\"" width=150 style=\""vertical-align:middle\"">---自我"",""<img src=\""../../test_img/19.png\"" width=150 style=\""vertical-align:middle\"">---生人"",""<img src=\""../../test_img/25.png\"" width=150 style=\""vertical-align:middle\"">---朋友""]","","",""
"","","","","","html-keyboard-response","36","428102","0.0-7.0-0.0-1.12","null","<span style='color:GreenYellow; font-size: 70px;'>正确! </span>","null","","","","","","","","","","","","","","","","","","","","","","","","","feedback_test","",""
"","","","","","psychophysics","37","430106","0.0-7.0-0.0-0.13","1000","","arrowright","","","","","","","","","","","","","key","arrowright","16.664705882352745","735","455.5","arrowright","true","../../test_img/19.png","生人","prac_matching_task","生人","[""<img src=\""../../test_img/12.png\"" width=150 style=\""vertical-align:middle\"">---自我"",""<img src=\""../../test_img/19.png\"" width=150 style=\""vertical-align:middle\"">---生人"",""<img src=\""../../test_img/25.png\"" width=150 style=\""vertical-align:middle\"">---朋友""]","","",""
"","","","","","html-keyboard-response","38","430407","0.0-7.0-0.0-1.13","null","<span style='color:GreenYellow; font-size: 70px;'>正确! </span>","null","","","","","","","","","","","","","","","","","","","","","","","","","feedback_test","",""
"","","","","","psychophysics","39","432594","0.0-7.0-0.0-0.14","1185","","arrowleft","","","","","","","","","","","","","key","arrowleft","16.666666666666668","735","455.5","arrowleft","true","../../test_img/12.png","朋友","prac_matching_task","自我","[""<img src=\""../../test_img/12.png\"" width=150 style=\""vertical-align:middle\"">---自我"",""<img src=\""../../test_img/19.png\"" width=150 style=\""vertical-align:middle\"">---生人"",""<img src=\""../../test_img/25.png\"" width=150 style=\""vertical-align:middle\"">---朋友""]","","",""
"","","","","","html-keyboard-response","40","432896","0.0-7.0-0.0-1.14","null","<span style='color:GreenYellow; font-size: 70px;'>正确! </span>","null","","","","","","","","","","","","","","","","","","","","","","","","","feedback_test","",""
"","","","","","psychophysics","41","435179","0.0-7.0-0.0-0.15","1280","","arrowleft","","","","","","","","","","","","","key","arrowleft","16.6688888888888","735","455.5","arrowright","false","../../test_img/25.png","朋友","prac_matching_task","朋友","[""<img src=\""../../test_img/12.png\"" width=150 style=\""vertical-align:middle\"">---自我"",""<img src=\""../../test_img/19.png\"" width=150 style=\""vertical-align:middle\"">---生人"",""<img src=\""../../test_img/25.png\"" width=150 style=\""vertical-align:middle\"">---朋友""]","","",""
"","","","","","html-keyboard-response","42","435480","0.0-7.0-0.0-1.15","null","<span style='color:red; font-size: 70px;'>错误! </span>","null","","","","","","","","","","","","","","","","","","","","","","","","","feedback_test","",""
"","","","","","psychophysics","43","437207","0.0-7.0-0.0-0.16","724","","arrowright","","","","","","","","","","","","","key","arrowright","16.668627450980505","735","455.5","arrowright","true","../../test_img/12.png","自我","prac_matching_task","自我","[""<img src=\""../../test_img/12.png\"" width=150 style=\""vertical-align:middle\"">---自我"",""<img src=\""../../test_img/19.png\"" width=150 style=\""vertical-align:middle\"">---生人"",""<img src=\""../../test_img/25.png\"" width=150 style=\""vertical-align:middle\"">---朋友""]","","",""
"","","","","","html-keyboard-response","44","437509","0.0-7.0-0.0-1.16","null","<span style='color:GreenYellow; font-size: 70px;'>正确! </span>","null","","","","","","","","","","","","","","","","","","","","","","","","","feedback_test","",""
"","","","","","psychophysics","45","439415","0.0-7.0-0.0-0.17","904","","arrowright","","","","","","","","","","","","","key","arrowright","16.667256637168347","735","455.5","arrowright","true","../../test_img/12.png","自我","prac_matching_task","自我","[""<img src=\""../../test_img/12.png\"" width=150 style=\""vertical-align:middle\"">---自我"",""<img src=\""../../test_img/19.png\"" width=150 style=\""vertical-align:middle\"">---生人"",""<img src=\""../../test_img/25.png\"" width=150 style=\""vertical-align:middle\"">---朋友""]","","",""
"","","","","","html-keyboard-response","46","439716","0.0-7.0-0.0-1.17","null","<span style='color:GreenYellow; font-size: 70px;'>正确! </span>","null","","","","","","","","","","","","","","","","","","","","","","","","","feedback_test","",""
"","","","","","psychophysics","47","441530","0.0-7.0-0.0-0.18","811","","arrowleft","","","","","","","","","","","","","key","arrowleft","16.65925925925937","735","455.5","arrowleft","true","../../test_img/19.png","朋友","prac_matching_task","生人","[""<img src=\""../../test_img/12.png\"" width=150 style=\""vertical-align:middle\"">---自我"",""<img src=\""../../test_img/19.png\"" width=150 style=\""vertical-align:middle\"">---生人"",""<img src=\""../../test_img/25.png\"" width=150 style=\""vertical-align:middle\"">---朋友""]","","",""
"","","","","","html-keyboard-response","48","441832","0.0-7.0-0.0-1.18","null","<span style='color:GreenYellow; font-size: 70px;'>正确! </span>","null","","","","","","","","","","","","","","","","","","","","","","","","","feedback_test","",""
"","","","","","psychophysics","49","443731","0.0-7.0-0.0-0.19","896","","arrowright","","","","","","","","","","","","","key","arrowright","16.66637168141634","735","455.5","arrowright","true","../../test_img/25.png","朋友","prac_matching_task","朋友","[""<img src=\""../../test_img/12.png\"" width=150 style=\""vertical-align:middle\"">---自我"",""<img src=\""../../test_img/19.png\"" width=150 style=\""vertical-align:middle\"">---生人"",""<img src=\""../../test_img/25.png\"" width=150 style=\""vertical-align:middle\"">---朋友""]","","",""
"","","","","","html-keyboard-response","50","444033","0.0-7.0-0.0-1.19","null","<span style='color:GreenYellow; font-size: 70px;'>正确! </span>","null","","","","","","","","","","","","","","","","","","","","","","","","","feedback_test","",""
"","","","","","psychophysics","51","445721","0.0-7.0-0.0-0.20","687","","arrowleft","","","","","","","","","","","","","key","arrowleft","16.67600000000035","735","455.5","arrowleft","true","../../test_img/19.png","自我","prac_matching_task","生人","[""<img src=\""../../test_img/12.png\"" width=150 style=\""vertical-align:middle\"">---自我"",""<img src=\""../../test_img/19.png\"" width=150 style=\""vertical-align:middle\"">---生人"",""<img src=\""../../test_img/25.png\"" width=150 style=\""vertical-align:middle\"">---朋友""]","","",""
"","","","","","html-keyboard-response","52","446023","0.0-7.0-0.0-1.20","null","<span style='color:GreenYellow; font-size: 70px;'>正确! </span>","null","","","","","","","","","","","","","","","","","","","","","","","","","feedback_test","",""
"","","","","","psychophysics","53","448271","0.0-7.0-0.0-0.21","1246","","arrowleft","","","","","","","","","","","","","key","arrowleft","16.673684210526577","735","455.5","arrowleft","true","../../test_img/25.png","自我","prac_matching_task","朋友","[""<img src=\""../../test_img/12.png\"" width=150 style=\""vertical-align:middle\"">---自我"",""<img src=\""../../test_img/19.png\"" width=150 style=\""vertical-align:middle\"">---生人"",""<img src=\""../../test_img/25.png\"" width=150 style=\""vertical-align:middle\"">---朋友""]","","",""
"","","","","","html-keyboard-response","54","448573","0.0-7.0-0.0-1.21","null","<span style='color:GreenYellow; font-size: 70px;'>正确! </span>","null","","","","","","","","","","","","","","","","","","","","","","","","","feedback_test","",""
"","","","","","psychophysics","55","450737","0.0-7.0-0.0-0.22","1161","","arrowright","","","","","","","","","","","","","key","arrowright","16.67421874999991","735","455.5","arrowright","true","../../test_img/19.png","生人","prac_matching_task","生人","[""<img src=\""../../test_img/12.png\"" width=150 style=\""vertical-align:middle\"">---自我"",""<img src=\""../../test_img/19.png\"" width=150 style=\""vertical-align:middle\"">---生人"",""<img src=\""../../test_img/25.png\"" width=150 style=\""vertical-align:middle\"">---朋友""]","","",""
"","","","","","html-keyboard-response","56","451040","0.0-7.0-0.0-1.22","null","<span style='color:GreenYellow; font-size: 70px;'>正确! </span>","null","","","","","","","","","","","","","","","","","","","","","","","","","feedback_test","",""
"","","","","","psychophysics","57","452938","0.0-7.0-0.0-0.23","895","","arrowleft","","","","","","","","","","","","","key","arrowleft","16.66607142857174","735","455.5","arrowleft","true","../../test_img/25.png","生人","prac_matching_task","朋友","[""<img src=\""../../test_img/12.png\"" width=150 style=\""vertical-align:middle\"">---自我"",""<img src=\""../../test_img/19.png\"" width=150 style=\""vertical-align:middle\"">---生人"",""<img src=\""../../test_img/25.png\"" width=150 style=\""vertical-align:middle\"">---朋友""]","","",""
"","","","","","html-keyboard-response","58","453240","0.0-7.0-0.0-1.23","null","<span style='color:GreenYellow; font-size: 70px;'>正确! </span>","null","","","","","","","","","","","","","","","","","","","","","","","","","feedback_test","",""
"","","","","","html-keyboard-response","59","464053","0.0-8.0","10811","<style>.context{color:white; font-size: 35px; line-height:40px}</style>                          <div><p class='context'>您正确回答了83% 的试次。</p ><p class='context'>您的平均反应时为868毫秒。</p ><p class='context'>恭喜您完成练习。按任意键进入知觉匹配任务正式实验。</p ><p style = 'color:lightgreen; font-size: 35px;' >正式实验与练习要求相同，请您尽可能又快又准地进行按键反应</p><p class='footer' style='font-size: 22px; line-height:40px;'>请将您右手的<span style='color: lightgreen;'>食指与无名指</span>放在电脑键盘的相应键位上进行按键。</p >","arrowright","","","","","","","","","","","","","","","","","","","","","","","","","","",""
"","","","","","psychophysics","60","465763","0.0-9.0-0.0-0.0-0.0-0.0","707","","arrowright","","","","","","","","","","","","","key","arrowright","16.664356435643334","735","455.5","arrowright","true","../../test_img/12.png","自我","matching_task","自我","[""<img src=\""../../test_img/12.png\"" width=150 style=\""vertical-align:middle\"">---自我"",""<img src=\""../../test_img/19.png\"" width=150 style=\""vertical-align:middle\"">---生人"",""<img src=\""../../test_img/25.png\"" width=150 style=\""vertical-align:middle\"">---朋友""]","","",""
"","","","","","html-keyboard-response","61","466265","0.0-9.0-0.0-0.0-0.0-1.0","null","<span style='color:GreenYellow; font-size: 70px;'>正确! </span>","null","","","","","","","","","","","","","","","","","","","","","","","","","feedback_test","",""
"","","","","","psychophysics","62","468078","0.0-9.0-0.0-0.0-0.0-0.1","813","","arrowright","","","","","","","","","","","","","key","arrowright","16.672897196261683","735","455.5","arrowright","true","../../test_img/25.png","朋友","matching_task","朋友","[""<img src=\""../../test_img/12.png\"" width=150 style=\""vertical-align:middle\"">---自我"",""<img src=\""../../test_img/19.png\"" width=150 style=\""vertical-align:middle\"">---生人"",""<img src=\""../../test_img/25.png\"" width=150 style=\""vertical-align:middle\"">---朋友""]","","",""
"","","","","","html-keyboard-response","63","468580","0.0-9.0-0.0-0.0-0.0-1.1","null","<span style='color:GreenYellow; font-size: 70px;'>正确! </span>","null","","","","","","","","","","","","","","","","","","","","","","","","","feedback_test","",""
"","","","","","psychophysics","64","470216","0.0-9.0-0.0-0.0-0.0-0.2","634","","arrowright","","","","","","","","","","","","","key","arrowright","16.66597938144306","735","455.5","arrowright","true","../../test_img/19.png","生人","matching_task","生人","[""<img src=\""../../test_img/12.png\"" width=150 style=\""vertical-align:middle\"">---自我"",""<img src=\""../../test_img/19.png\"" width=150 style=\""vertical-align:middle\"">---生人"",""<img src=\""../../test_img/25.png\"" width=150 style=\""vertical-align:middle\"">---朋友""]","","",""
"","","","","","html-keyboard-response","65","470717","0.0-9.0-0.0-0.0-0.0-1.2","null","<span style='color:GreenYellow; font-size: 70px;'>正确! </span>","null","","","","","","","","","","","","","","","","","","","","","","","","","feedback_test","",""
"","","","","","psychophysics","66","472571","0.0-9.0-0.0-0.0-0.0-0.3","852","","arrowright","","","","","","","","","","","","","key","arrowright","16.667272727272938","735","455.5","arrowright","true","../../test_img/19.png","生人","matching_task","生人","[""<img src=\""../../test_img/12.png\"" width=150 style=\""vertical-align:middle\"">---自我"",""<img src=\""../../test_img/19.png\"" width=150 style=\""vertical-align:middle\"">---生人"",""<img src=\""../../test_img/25.png\"" width=150 style=\""vertical-align:middle\"">---朋友""]","","",""
"","","","","","html-keyboard-response","67","473072","0.0-9.0-0.0-0.0-0.0-1.3","null","<span style='color:GreenYellow; font-size: 70px;'>正确! </span>","null","","","","","","","","","","","","","","","","","","","","","","","","","feedback_test","",""
"","","","","","psychophysics","68","474786","0.0-9.0-0.0-0.0-0.0-0.4","711","","arrowright","","","","","","","","","","","","","key","arrowright","16.661386138613747","735","455.5","arrowright","true","../../test_img/25.png","朋友","matching_task","朋友","[""<img src=\""../../test_img/12.png\"" width=150 style=\""vertical-align:middle\"">---自我"",""<img src=\""../../test_img/19.png\"" width=150 style=\""vertical-align:middle\"">---生人"",""<img src=\""../../test_img/25.png\"" width=150 style=\""vertical-align:middle\"">---朋友""]","","",""
"","","","","","html-keyboard-response","69","475288","0.0-9.0-0.0-0.0-0.0-1.4","null","<span style='color:GreenYellow; font-size: 70px;'>正确! </span>","null","","","","","","","","","","","","","","","","","","","","","","","","","feedback_test","",""
"","","","","","psychophysics","70","476785","0.0-9.0-0.0-0.0-0.0-0.5","495","","arrowright","","","","","","","","","","","","","key","arrowright","16.671590909090643","735","455.5","arrowright","true","../../test_img/12.png","自我","matching_task","自我","[""<img src=\""../../test_img/12.png\"" width=150 style=\""vertical-align:middle\"">---自我"",""<img src=\""../../test_img/19.png\"" width=150 style=\""vertical-align:middle\"">---生人"",""<img src=\""../../test_img/25.png\"" width=150 style=\""vertical-align:middle\"">---朋友""]","","",""
"","","","","","html-keyboard-response","71","477287","0.0-9.0-0.0-0.0-0.0-1.5","null","<span style='color:GreenYellow; font-size: 70px;'>正确! </span>","null","","","","","","","","","","","","","","","","","","","","","","","","","feedback_test","",""
"","","","","","psychophysics","72","479175","0.0-9.0-0.0-0.0-0.0-0.6","886","","arrowleft","","","","","","","","","","","","","key","arrowleft","16.661261261261473","735","455.5","arrowleft","true","../../test_img/19.png","朋友","matching_task","生人","[""<img src=\""../../test_img/12.png\"" width=150 style=\""vertical-align:middle\"">---自我"",""<img src=\""../../test_img/19.png\"" width=150 style=\""vertical-align:middle\"">---生人"",""<img src=\""../../test_img/25.png\"" width=150 style=\""vertical-align:middle\"">---朋友""]","","",""
"","","","","","html-keyboard-response","73","479677","0.0-9.0-0.0-0.0-0.0-1.6","null","<span style='color:GreenYellow; font-size: 70px;'>正确! </span>","null","","","","","","","","","","","","","","","","","","","","","","","","","feedback_test","",""
"","","","","","psychophysics","74","481352","0.0-9.0-0.0-0.0-0.0-0.7","673","","arrowleft","","","","","","","","","","","","","key","arrowleft","16.666666666666668","735","455.5","arrowleft","true","../../test_img/12.png","生人","matching_task","自我","[""<img src=\""../../test_img/12.png\"" width=150 style=\""vertical-align:middle\"">---自我"",""<img src=\""../../test_img/19.png\"" width=150 style=\""vertical-align:middle\"">---生人"",""<img src=\""../../test_img/25.png\"" width=150 style=\""vertical-align:middle\"">---朋友""]","","",""
"","","","","","html-keyboard-response","75","481853","0.0-9.0-0.0-0.0-0.0-1.7","null","<span style='color:GreenYellow; font-size: 70px;'>正确! </span>","null","","","","","","","","","","","","","","","","","","","","","","","","","feedback_test","",""
"","","","","","psychophysics","76","484247","0.0-9.0-0.0-0.0-0.0-0.8","1391","","arrowright","","","","","","","","","","","","","key","arrowright","16.669014084507044","735","455.5","arrowleft","false","../../test_img/25.png","生人","matching_task","朋友","[""<img src=\""../../test_img/12.png\"" width=150 style=\""vertical-align:middle\"">---自我"",""<img src=\""../../test_img/19.png\"" width=150 style=\""vertical-align:middle\"">---生人"",""<img src=\""../../test_img/25.png\"" width=150 style=\""vertical-align:middle\"">---朋友""]","","",""
"","","","","","html-keyboard-response","77","484749","0.0-9.0-0.0-0.0-0.0-1.8","null","<span style='color:red; font-size: 70px;'>错误! </span>","null","","","","","","","","","","","","","","","","","","","","","","","","","feedback_test","",""
"","","","","","psychophysics","78","486599","0.0-9.0-0.0-0.0-0.0-0.9","848","","arrowright","","","","","","","","","","","","","key","arrowright","16.667272727272408","735","455.5","arrowleft","false","../../test_img/25.png","自我","matching_task","朋友","[""<img src=\""../../test_img/12.png\"" width=150 style=\""vertical-align:middle\"">---自我"",""<img src=\""../../test_img/19.png\"" width=150 style=\""vertical-align:middle\"">---生人"",""<img src=\""../../test_img/25.png\"" width=150 style=\""vertical-align:middle\"">---朋友""]","","",""
"","","","","","html-keyboard-response","79","487100","0.0-9.0-0.0-0.0-0.0-1.9","null","<span style='color:red; font-size: 70px;'>错误! </span>","null","","","","","","","","","","","","","","","","","","","","","","","","","feedback_test","",""
"","","","","","psychophysics","80","488949","0.0-9.0-0.0-0.0-0.0-0.10","848","","arrowleft","","","","","","","","","","","","","key","arrowleft","16.663636363636364","735","455.5","arrowleft","true","../../test_img/19.png","自我","matching_task","生人","[""<img src=\""../../test_img/12.png\"" width=150 style=\""vertical-align:middle\"">---自我"",""<img src=\""../../test_img/19.png\"" width=150 style=\""vertical-align:middle\"">---生人"",""<img src=\""../../test_img/25.png\"" width=150 style=\""vertical-align:middle\"">---朋友""]","","",""
"","","","","","html-keyboard-response","81","489451","0.0-9.0-0.0-0.0-0.0-1.10","null","<span style='color:GreenYellow; font-size: 70px;'>正确! </span>","null","","","","","","","","","","","","","","","","","","","","","","","","","feedback_test","",""
"","","","","","psychophysics","82","491495","0.0-9.0-0.0-0.0-0.0-0.11","1042","","arrowright","","","","","","","","","","","","","key","arrowright","16.667768595041228","735","455.5","arrowleft","false","../../test_img/12.png","朋友","matching_task","自我","[""<img src=\""../../test_img/12.png\"" width=150 style=\""vertical-align:middle\"">---自我"",""<img src=\""../../test_img/19.png\"" width=150 style=\""vertical-align:middle\"">---生人"",""<img src=\""../../test_img/25.png\"" width=150 style=\""vertical-align:middle\"">---朋友""]","","",""
"","","","","","html-keyboard-response","83","491996","0.0-9.0-0.0-0.0-0.0-1.11","null","<span style='color:red; font-size: 70px;'>错误! </span>","null","","","","","","","","","","","","","","","","","","","","","","","","","feedback_test","",""
"","","","","","psychophysics","84","494232","0.0-9.0-0.0-0.0-0.0-0.12","1234","","arrowright","","","","","","","","","","","","","key","arrowright","16.66315789473693","735","455.5","arrowright","true","../../test_img/19.png","生人","matching_task","生人","[""<img src=\""../../test_img/12.png\"" width=150 style=\""vertical-align:middle\"">---自我"",""<img src=\""../../test_img/19.png\"" width=150 style=\""vertical-align:middle\"">---生人"",""<img src=\""../../test_img/25.png\"" width=150 style=\""vertical-align:middle\"">---朋友""]","","",""
"","","","","","html-keyboard-response","85","494734","0.0-9.0-0.0-0.0-0.0-1.12","null","<span style='color:GreenYellow; font-size: 70px;'>正确! </span>","null","","","","","","","","","","","","","","","","","","","","","","","","","feedback_test","",""
"","","","","","psychophysics","86","496486","0.0-9.0-0.0-0.0-0.0-0.13","749","","arrowleft","","","","","","","","","","","","","key","arrowleft","16.667307692307915","735","455.5","arrowleft","true","../../test_img/19.png","朋友","matching_task","生人","[""<img src=\""../../test_img/12.png\"" width=150 style=\""vertical-align:middle\"">---自我"",""<img src=\""../../test_img/19.png\"" width=150 style=\""vertical-align:middle\"">---生人"",""<img src=\""../../test_img/25.png\"" width=150 style=\""vertical-align:middle\"">---朋友""]","","",""
"","","","","","html-keyboard-response","87","496987","0.0-9.0-0.0-0.0-0.0-1.13","null","<span style='color:GreenYellow; font-size: 70px;'>正确! </span>","null","","","","","","","","","","","","","","","","","","","","","","","","","feedback_test","",""
"","","","","","psychophysics","88","498871","0.0-9.0-0.0-0.0-0.0-0.14","881","","arrowleft","","","","","","","","","","","","","key","arrowleft","16.66486486486476","735","455.5","arrowleft","true","../../test_img/19.png","自我","matching_task","生人","[""<img src=\""../../test_img/12.png\"" width=150 style=\""vertical-align:middle\"">---自我"",""<img src=\""../../test_img/19.png\"" width=150 style=\""vertical-align:middle\"">---生人"",""<img src=\""../../test_img/25.png\"" width=150 style=\""vertical-align:middle\"">---朋友""]","","",""
"","","","","","html-keyboard-response","89","499372","0.0-9.0-0.0-0.0-0.0-1.14","null","<span style='color:GreenYellow; font-size: 70px;'>正确! </span>","null","","","","","","","","","","","","","","","","","","","","","","","","","feedback_test","",""
"","","","","","psychophysics","90","501649","0.0-9.0-0.0-0.0-0.0-0.15","1274","","arrowleft","","","","","","","","","","","","","key","arrowleft","16.659999999999826","735","455.5","arrowleft","true","../../test_img/25.png","生人","matching_task","朋友","[""<img src=\""../../test_img/12.png\"" width=150 style=\""vertical-align:middle\"">---自我"",""<img src=\""../../test_img/19.png\"" width=150 style=\""vertical-align:middle\"">---生人"",""<img src=\""../../test_img/25.png\"" width=150 style=\""vertical-align:middle\"">---朋友""]","","",""
"","","","","","html-keyboard-response","91","502151","0.0-9.0-0.0-0.0-0.0-1.15","null","<span style='color:GreenYellow; font-size: 70px;'>正确! </span>","null","","","","","","","","","","","","","","","","","","","","","","","","","feedback_test","",""
"","","","","","psychophysics","92","504296","0.0-9.0-0.0-0.0-0.0-0.16","1143","","arrowright","","","","","","","","","","","","","key","arrowright","16.66771653543298","735","455.5","arrowright","true","../../test_img/25.png","朋友","matching_task","朋友","[""<img src=\""../../test_img/12.png\"" width=150 style=\""vertical-align:middle\"">---自我"",""<img src=\""../../test_img/19.png\"" width=150 style=\""vertical-align:middle\"">---生人"",""<img src=\""../../test_img/25.png\"" width=150 style=\""vertical-align:middle\"">---朋友""]","","",""
"","","","","","html-keyboard-response","93","504797","0.0-9.0-0.0-0.0-0.0-1.16","null","<span style='color:GreenYellow; font-size: 70px;'>正确! </span>","null","","","","","","","","","","","","","","","","","","","","","","","","","feedback_test","",""
"","","","","","psychophysics","94","506567","0.0-9.0-0.0-0.0-0.0-0.17","769","","arrowright","","","","","","","","","","","","","key","arrowright","16.675238095238317","735","455.5","arrowright","true","../../test_img/12.png","自我","matching_task","自我","[""<img src=\""../../test_img/12.png\"" width=150 style=\""vertical-align:middle\"">---自我"",""<img src=\""../../test_img/19.png\"" width=150 style=\""vertical-align:middle\"">---生人"",""<img src=\""../../test_img/25.png\"" width=150 style=\""vertical-align:middle\"">---朋友""]","","",""
"","","","","","html-keyboard-response","95","507069","0.0-9.0-0.0-0.0-0.0-1.17","null","<span style='color:GreenYellow; font-size: 70px;'>正确! </span>","null","","","","","","","","","","","","","","","","","","","","","","","","","feedback_test","",""
"","","","","","psychophysics","96","509573","0.0-9.0-0.0-0.0-0.0-0.18","null","","null","","","","","","","","","","","","","key","null","16.671812080536757","735","455.5","arrowright","false","../../test_img/19.png","生人","matching_task","生人","[""<img src=\""../../test_img/12.png\"" width=150 style=\""vertical-align:middle\"">---自我"",""<img src=\""../../test_img/19.png\"" width=150 style=\""vertical-align:middle\"">---生人"",""<img src=\""../../test_img/25.png\"" width=150 style=\""vertical-align:middle\"">---朋友""]","","",""
"","","","","","html-keyboard-response","97","510075","0.0-9.0-0.0-0.0-0.0-1.18","null","<span class='add_' style='color:yellow; font-size: 70px;'> 太慢! </span>","null","","","","","","","","","","","","","","","","","","","","","","","","","feedback_test","",""
"","","","","","psychophysics","98","511906","0.0-9.0-0.0-0.0-0.0-0.19","828","","arrowright","","","","","","","","","","","","","key","arrowright","16.671296296296298","735","455.5","arrowright","true","../../test_img/12.png","自我","matching_task","自我","[""<img src=\""../../test_img/12.png\"" width=150 style=\""vertical-align:middle\"">---自我"",""<img src=\""../../test_img/19.png\"" width=150 style=\""vertical-align:middle\"">---生人"",""<img src=\""../../test_img/25.png\"" width=150 style=\""vertical-align:middle\"">---朋友""]","","",""
"","","","","","html-keyboard-response","99","512407","0.0-9.0-0.0-0.0-0.0-1.19","null","<span style='color:GreenYellow; font-size: 70px;'>正确! </span>","null","","","","","","","","","","","","","","","","","","","","","","","","","feedback_test","",""
"","","","","","psychophysics","100","514230","0.0-9.0-0.0-0.0-0.0-0.20","821","","arrowleft","","","","","","","","","","","","","key","arrowleft","16.672222222222544","735","455.5","arrowleft","true","../../test_img/12.png","生人","matching_task","自我","[""<img src=\""../../test_img/12.png\"" width=150 style=\""vertical-align:middle\"">---自我"",""<img src=\""../../test_img/19.png\"" width=150 style=\""vertical-align:middle\"">---生人"",""<img src=\""../../test_img/25.png\"" width=150 style=\""vertical-align:middle\"">---朋友""]","","",""
"","","","","","html-keyboard-response","101","514731","0.0-9.0-0.0-0.0-0.0-1.20","null","<span style='color:GreenYellow; font-size: 70px;'>正确! </span>","null","","","","","","","","","","","","","","","","","","","","","","","","","feedback_test","",""
"","","","","","psychophysics","102","516965","0.0-9.0-0.0-0.0-0.0-0.21","1231","","arrowleft","","","","","","","","","","","","","key","arrowleft","16.66616541353366","735","455.5","arrowright","false","../../test_img/25.png","朋友","matching_task","朋友","[""<img src=\""../../test_img/12.png\"" width=150 style=\""vertical-align:middle\"">---自我"",""<img src=\""../../test_img/19.png\"" width=150 style=\""vertical-align:middle\"">---生人"",""<img src=\""../../test_img/25.png\"" width=150 style=\""vertical-align:middle\"">---朋友""]","","",""
"","","","","","html-keyboard-response","103","517466","0.0-9.0-0.0-0.0-0.0-1.21","null","<span style='color:red; font-size: 70px;'>错误! </span>","null","","","","","","","","","","","","","","","","","","","","","","","","","feedback_test","",""
"","","","","","psychophysics","104","519213","0.0-9.0-0.0-0.0-0.0-0.22","745","","arrowright","","","","","","","","","","","","","key","arrowright","16.667307692307915","735","455.5","arrowleft","false","../../test_img/12.png","朋友","matching_task","自我","[""<img src=\""../../test_img/12.png\"" width=150 style=\""vertical-align:middle\"">---自我"",""<img src=\""../../test_img/19.png\"" width=150 style=\""vertical-align:middle\"">---生人"",""<img src=\""../../test_img/25.png\"" width=150 style=\""vertical-align:middle\"">---朋友""]","","",""
"","","","","","html-keyboard-response","105","519714","0.0-9.0-0.0-0.0-0.0-1.22","null","<span style='color:red; font-size: 70px;'>错误! </span>","null","","","","","","","","","","","","","","","","","","","","","","","","","feedback_test","",""
"","","","","","psychophysics","106","521822","0.0-9.0-0.0-0.0-0.0-0.23","1106","","arrowleft","","","","","","","","","","","","","key","arrowleft","16.667200000000186","735","455.5","arrowleft","true","../../test_img/25.png","自我","matching_task","朋友","[""<img src=\""../../test_img/12.png\"" width=150 style=\""vertical-align:middle\"">---自我"",""<img src=\""../../test_img/19.png\"" width=150 style=\""vertical-align:middle\"">---生人"",""<img src=\""../../test_img/25.png\"" width=150 style=\""vertical-align:middle\"">---朋友""]","","",""
"","","","","","html-keyboard-response","107","522323","0.0-9.0-0.0-0.0-0.0-1.23","null","<span style='color:GreenYellow; font-size: 70px;'>正确! </span>","null","","","","","","","","","","","","","","","","","","","","","","","","","feedback_test","",""
"","","","","","psychophysics","108","524538","0.0-9.0-0.0-0.0-0.0-0.24","1212","","arrowright","","","","","","","","","","","","","key","arrowright","16.666412213740813","735","455.5","arrowright","true","../../test_img/19.png","生人","matching_task","生人","[""<img src=\""../../test_img/12.png\"" width=150 style=\""vertical-align:middle\"">---自我"",""<img src=\""../../test_img/19.png\"" width=150 style=\""vertical-align:middle\"">---生人"",""<img src=\""../../test_img/25.png\"" width=150 style=\""vertical-align:middle\"">---朋友""]","","",""
"","","","","","html-keyboard-response","109","525040","0.0-9.0-0.0-0.0-0.0-1.24","null","<span style='color:GreenYellow; font-size: 70px;'>正确! </span>","null","","","","","","","","","","","","","","","","","","","","","","","","","feedback_test","",""
"","","","","","psychophysics","110","526967","0.0-9.0-0.0-0.0-0.0-0.25","925","","arrowright","","","","","","","","","","","","","key","arrowright","16.665789473684416","735","455.5","arrowright","true","../../test_img/25.png","朋友","matching_task","朋友","[""<img src=\""../../test_img/12.png\"" width=150 style=\""vertical-align:middle\"">---自我"",""<img src=\""../../test_img/19.png\"" width=150 style=\""vertical-align:middle\"">---生人"",""<img src=\""../../test_img/25.png\"" width=150 style=\""vertical-align:middle\"">---朋友""]","","",""
"","","","","","html-keyboard-response","111","527468","0.0-9.0-0.0-0.0-0.0-1.25","null","<span style='color:GreenYellow; font-size: 70px;'>正确! </span>","null","","","","","","","","","","","","","","","","","","","","","","","","","feedback_test","",""
"","","","","","psychophysics","112","529247","0.0-9.0-0.0-0.0-0.0-0.26","777","","arrowleft","","","","","","","","","","","","","key","arrowleft","16.657547169810883","735","455.5","arrowleft","true","../../test_img/19.png","朋友","matching_task","生人","[""<img src=\""../../test_img/12.png\"" width=150 style=\""vertical-align:middle\"">---自我"",""<img src=\""../../test_img/19.png\"" width=150 style=\""vertical-align:middle\"">---生人"",""<img src=\""../../test_img/25.png\"" width=150 style=\""vertical-align:middle\"">---朋友""]","","",""
"","","","","","html-keyboard-response","113","529748","0.0-9.0-0.0-0.0-0.0-1.26","null","<span style='color:GreenYellow; font-size: 70px;'>正确! </span>","null","","","","","","","","","","","","","","","","","","","","","","","","","feedback_test","",""
"","","","","","psychophysics","114","531887","0.0-9.0-0.0-0.0-0.0-0.27","1137","","arrowleft","","","","","","","","","","","","","key","arrowleft","16.670866141732834","735","455.5","arrowleft","true","../../test_img/25.png","生人","matching_task","朋友","[""<img src=\""../../test_img/12.png\"" width=150 style=\""vertical-align:middle\"">---自我"",""<img src=\""../../test_img/19.png\"" width=150 style=\""vertical-align:middle\"">---生人"",""<img src=\""../../test_img/25.png\"" width=150 style=\""vertical-align:middle\"">---朋友""]","","",""
"","","","","","html-keyboard-response","115","532389","0.0-9.0-0.0-0.0-0.0-1.27","null","<span style='color:GreenYellow; font-size: 70px;'>正确! </span>","null","","","","","","","","","","","","","","","","","","","","","","","","","feedback_test","",""
"","","","","","psychophysics","116","534152","0.0-9.0-0.0-0.0-0.0-0.28","760","","arrowleft","","","","","","","","","","","","","key","arrowleft","16.662500000000225","735","455.5","arrowright","false","../../test_img/19.png","生人","matching_task","生人","[""<img src=\""../../test_img/12.png\"" width=150 style=\""vertical-align:middle\"">---自我"",""<img src=\""../../test_img/19.png\"" width=150 style=\""vertical-align:middle\"">---生人"",""<img src=\""../../test_img/25.png\"" width=150 style=\""vertical-align:middle\"">---朋友""]","","",""
"","","","","","html-keyboard-response","117","534653","0.0-9.0-0.0-0.0-0.0-1.28","null","<span style='color:red; font-size: 70px;'>错误! </span>","null","","","","","","","","","","","","","","","","","","","","","","","","","feedback_test","",""
"","","","","","psychophysics","118","536722","0.0-9.0-0.0-0.0-0.0-0.29","1065","","arrowleft","","","","","","","","","","","","","key","arrowleft","16.672131147540984","735","455.5","arrowleft","true","../../test_img/25.png","自我","matching_task","朋友","[""<img src=\""../../test_img/12.png\"" width=150 style=\""vertical-align:middle\"">---自我"",""<img src=\""../../test_img/19.png\"" width=150 style=\""vertical-align:middle\"">---生人"",""<img src=\""../../test_img/25.png\"" width=150 style=\""vertical-align:middle\"">---朋友""]","","",""
"","","","","","html-keyboard-response","119","537222","0.0-9.0-0.0-0.0-0.0-1.29","null","<span style='color:GreenYellow; font-size: 70px;'>正确! </span>","null","","","","","","","","","","","","","","","","","","","","","","","","","feedback_test","",""
"","","","","","psychophysics","120","539020","0.0-9.0-0.0-0.0-0.0-0.30","795","","arrowright","","","","","","","","","","","","","key","arrowright","16.666981132075033","735","455.5","arrowright","true","../../test_img/12.png","自我","matching_task","自我","[""<img src=\""../../test_img/12.png\"" width=150 style=\""vertical-align:middle\"">---自我"",""<img src=\""../../test_img/19.png\"" width=150 style=\""vertical-align:middle\"">---生人"",""<img src=\""../../test_img/25.png\"" width=150 style=\""vertical-align:middle\"">---朋友""]","","",""
"","","","","","html-keyboard-response","121","539522","0.0-9.0-0.0-0.0-0.0-1.30","null","<span style='color:GreenYellow; font-size: 70px;'>正确! </span>","null","","","","","","","","","","","","","","","","","","","","","","","","","feedback_test","",""
"","","","","","psychophysics","122","541327","0.0-9.0-0.0-0.0-0.0-0.31","802","","arrowleft","","","","","","","","","","","","","key","arrowleft","16.676415094339184","735","455.5","arrowleft","true","../../test_img/19.png","自我","matching_task","生人","[""<img src=\""../../test_img/12.png\"" width=150 style=\""vertical-align:middle\"">---自我"",""<img src=\""../../test_img/19.png\"" width=150 style=\""vertical-align:middle\"">---生人"",""<img src=\""../../test_img/25.png\"" width=150 style=\""vertical-align:middle\"">---朋友""]","","",""
"","","","","","html-keyboard-response","123","541828","0.0-9.0-0.0-0.0-0.0-1.31","null","<span style='color:GreenYellow; font-size: 70px;'>正确! </span>","null","","","","","","","","","","","","","","","","","","","","","","","","","feedback_test","",""
"","","","","","psychophysics","124","543581","0.0-9.0-0.0-0.0-0.0-0.32","752","","arrowright","","","","","","","","","","","","","key","arrowright","16.667307692307915","735","455.5","arrowright","true","../../test_img/25.png","朋友","matching_task","朋友","[""<img src=\""../../test_img/12.png\"" width=150 style=\""vertical-align:middle\"">---自我"",""<img src=\""../../test_img/19.png\"" width=150 style=\""vertical-align:middle\"">---生人"",""<img src=\""../../test_img/25.png\"" width=150 style=\""vertical-align:middle\"">---朋友""]","","",""
"","","","","","html-keyboard-response","125","544083","0.0-9.0-0.0-0.0-0.0-1.32","null","<span style='color:GreenYellow; font-size: 70px;'>正确! </span>","null","","","","","","","","","","","","","","","","","","","","","","","","","feedback_test","",""
"","","","","","psychophysics","126","545847","0.0-9.0-0.0-0.0-0.0-0.33","762","","arrowleft","","","","","","","","","","","","","key","arrowleft","16.675238095238317","735","455.5","arrowleft","true","../../test_img/12.png","朋友","matching_task","自我","[""<img src=\""../../test_img/12.png\"" width=150 style=\""vertical-align:middle\"">---自我"",""<img src=\""../../test_img/19.png\"" width=150 style=\""vertical-align:middle\"">---生人"",""<img src=\""../../test_img/25.png\"" width=150 style=\""vertical-align:middle\"">---朋友""]","","",""
"","","","","","html-keyboard-response","127","546348","0.0-9.0-0.0-0.0-0.0-1.33","null","<span style='color:GreenYellow; font-size: 70px;'>正确! </span>","null","","","","","","","","","","","","","","","","","","","","","","","","","feedback_test","",""
"","","","","","psychophysics","128","548098","0.0-9.0-0.0-0.0-0.0-0.34","748","","arrowright","","","","","","","","","","","","","key","arrowright","16.66346153846154","735","455.5","arrowright","true","../../test_img/12.png","自我","matching_task","自我","[""<img src=\""../../test_img/12.png\"" width=150 style=\""vertical-align:middle\"">---自我"",""<img src=\""../../test_img/19.png\"" width=150 style=\""vertical-align:middle\"">---生人"",""<img src=\""../../test_img/25.png\"" width=150 style=\""vertical-align:middle\"">---朋友""]","","",""
"","","","","","html-keyboard-response","129","548599","0.0-9.0-0.0-0.0-0.0-1.34","null","<span style='color:GreenYellow; font-size: 70px;'>正确! </span>","null","","","","","","","","","","","","","","","","","","","","","","","","","feedback_test","",""
"","","","","","psychophysics","130","550444","0.0-9.0-0.0-0.0-0.0-0.35","843","","arrowleft","","","","","","","","","","","","","key","arrowleft","16.67522935779902","735","455.5","arrowleft","true","../../test_img/12.png","生人","matching_task","自我","[""<img src=\""../../test_img/12.png\"" width=150 style=\""vertical-align:middle\"">---自我"",""<img src=\""../../test_img/19.png\"" width=150 style=\""vertical-align:middle\"">---生人"",""<img src=\""../../test_img/25.png\"" width=150 style=\""vertical-align:middle\"">---朋友""]","","",""
"","","","","","html-keyboard-response","131","550945","0.0-9.0-0.0-0.0-0.0-1.35","null","<span style='color:GreenYellow; font-size: 70px;'>正确! </span>","null","","","","","","","","","","","","","","","","","","","","","","","","","feedback_test","",""
"","","","","","psychophysics","132","552732","0.0-9.0-0.0-0.0-0.0-0.36","784","","arrowright","","","","","","","","","","","","","key","arrowright","16.661320754716762","735","455.5","arrowright","true","../../test_img/19.png","生人","matching_task","生人","[""<img src=\""../../test_img/12.png\"" width=150 style=\""vertical-align:middle\"">---自我"",""<img src=\""../../test_img/19.png\"" width=150 style=\""vertical-align:middle\"">---生人"",""<img src=\""../../test_img/25.png\"" width=150 style=\""vertical-align:middle\"">---朋友""]","","",""
"","","","","","html-keyboard-response","133","553234","0.0-9.0-0.0-0.0-0.0-1.36","null","<span style='color:GreenYellow; font-size: 70px;'>正确! </span>","null","","","","","","","","","","","","","","","","","","","","","","","","","feedback_test","",""
"","","","","","psychophysics","134","555048","0.0-9.0-0.0-0.0-0.0-0.37","812","","arrowright","","","","","","","","","","","","","key","arrowright","16.667592592592378","735","455.5","arrowright","true","../../test_img/19.png","生人","matching_task","生人","[""<img src=\""../../test_img/12.png\"" width=150 style=\""vertical-align:middle\"">---自我"",""<img src=\""../../test_img/19.png\"" width=150 style=\""vertical-align:middle\"">---生人"",""<img src=\""../../test_img/25.png\"" width=150 style=\""vertical-align:middle\"">---朋友""]","","",""
"","","","","","html-keyboard-response","135","555550","0.0-9.0-0.0-0.0-0.0-1.37","null","<span style='color:GreenYellow; font-size: 70px;'>正确! </span>","null","","","","","","","","","","","","","","","","","","","","","","","","","feedback_test","",""
"","","","","","psychophysics","136","557396","0.0-9.0-0.0-0.0-0.0-0.38","844","","arrowleft","","","","","","","","","","","","","key","arrowleft","16.6690909090907","735","455.5","arrowleft","true","../../test_img/25.png","生人","matching_task","朋友","[""<img src=\""../../test_img/12.png\"" width=150 style=\""vertical-align:middle\"">---自我"",""<img src=\""../../test_img/19.png\"" width=150 style=\""vertical-align:middle\"">---生人"",""<img src=\""../../test_img/25.png\"" width=150 style=\""vertical-align:middle\"">---朋友""]","","",""
"","","","","","html-keyboard-response","137","557898","0.0-9.0-0.0-0.0-0.0-1.38","null","<span style='color:GreenYellow; font-size: 70px;'>正确! </span>","null","","","","","","","","","","","","","","","","","","","","","","","","","feedback_test","",""
"","","","","","psychophysics","138","559663","0.0-9.0-0.0-0.0-0.0-0.39","764","","arrowright","","","","","","","","","","","","","key","arrowright","16.667619047618825","735","455.5","arrowleft","false","../../test_img/12.png","朋友","matching_task","自我","[""<img src=\""../../test_img/12.png\"" width=150 style=\""vertical-align:middle\"">---自我"",""<img src=\""../../test_img/19.png\"" width=150 style=\""vertical-align:middle\"">---生人"",""<img src=\""../../test_img/25.png\"" width=150 style=\""vertical-align:middle\"">---朋友""]","","",""
"","","","","","html-keyboard-response","139","560165","0.0-9.0-0.0-0.0-0.0-1.39","null","<span style='color:red; font-size: 70px;'>错误! </span>","null","","","","","","","","","","","","","","","","","","","","","","","","","feedback_test","",""
"","","","","","psychophysics","140","561931","0.0-9.0-0.0-0.0-0.0-0.40","765","","arrowleft","","","","","","","","","","","","","key","arrowleft","16.666666666666668","735","455.5","arrowleft","true","../../test_img/12.png","生人","matching_task","自我","[""<img src=\""../../test_img/12.png\"" width=150 style=\""vertical-align:middle\"">---自我"",""<img src=\""../../test_img/19.png\"" width=150 style=\""vertical-align:middle\"">---生人"",""<img src=\""../../test_img/25.png\"" width=150 style=\""vertical-align:middle\"">---朋友""]","","",""
"","","","","","html-keyboard-response","141","562432","0.0-9.0-0.0-0.0-0.0-1.40","null","<span style='color:GreenYellow; font-size: 70px;'>正确! </span>","null","","","","","","","","","","","","","","","","","","","","","","","","","feedback_test","",""
"","","","","","psychophysics","142","564941","0.0-9.0-0.0-0.0-0.0-0.41","null","","null","","","","","","","","","","","","","key","null","16.66308724832168","735","455.5","arrowleft","false","../../test_img/25.png","自我","matching_task","朋友","[""<img src=\""../../test_img/12.png\"" width=150 style=\""vertical-align:middle\"">---自我"",""<img src=\""../../test_img/19.png\"" width=150 style=\""vertical-align:middle\"">---生人"",""<img src=\""../../test_img/25.png\"" width=150 style=\""vertical-align:middle\"">---朋友""]","","",""
"","","","","","html-keyboard-response","143","565444","0.0-9.0-0.0-0.0-0.0-1.41","null","<span class='add_' style='color:yellow; font-size: 70px;'> 太慢! </span>","null","","","","","","","","","","","","","","","","","","","","","","","","","feedback_test","",""
"","","","","","psychophysics","144","567080","0.0-9.0-0.0-0.0-0.0-0.42","635","","arrowleft","","","","","","","","","","","","","key","arrowleft","16.669072164948695","735","455.5","arrowleft","true","../../test_img/19.png","自我","matching_task","生人","[""<img src=\""../../test_img/12.png\"" width=150 style=\""vertical-align:middle\"">---自我"",""<img src=\""../../test_img/19.png\"" width=150 style=\""vertical-align:middle\"">---生人"",""<img src=\""../../test_img/25.png\"" width=150 style=\""vertical-align:middle\"">---朋友""]","","",""
"","","","","","html-keyboard-response","145","567581","0.0-9.0-0.0-0.0-0.0-1.42","null","<span style='color:GreenYellow; font-size: 70px;'>正确! </span>","null","","","","","","","","","","","","","","","","","","","","","","","","","feedback_test","",""
"","","","","","psychophysics","146","569346","0.0-9.0-0.0-0.0-0.0-0.43","764","","arrowright","","","","","","","","","","","","","key","arrowright","16.667619047618825","735","455.5","arrowright","true","../../test_img/12.png","自我","matching_task","自我","[""<img src=\""../../test_img/12.png\"" width=150 style=\""vertical-align:middle\"">---自我"",""<img src=\""../../test_img/19.png\"" width=150 style=\""vertical-align:middle\"">---生人"",""<img src=\""../../test_img/25.png\"" width=150 style=\""vertical-align:middle\"">---朋友""]","","",""
"","","","","","html-keyboard-response","147","569847","0.0-9.0-0.0-0.0-0.0-1.43","null","<span style='color:GreenYellow; font-size: 70px;'>正确! </span>","null","","","","","","","","","","","","","","","","","","","","","","","","","feedback_test","",""
"","","","","","psychophysics","148","571946","0.0-9.0-0.0-0.0-0.0-0.44","1097","","arrowleft","","","","","","","","","","","","","key","arrowleft","16.66639999999944","735","455.5","arrowleft","true","../../test_img/19.png","朋友","matching_task","生人","[""<img src=\""../../test_img/12.png\"" width=150 style=\""vertical-align:middle\"">---自我"",""<img src=\""../../test_img/19.png\"" width=150 style=\""vertical-align:middle\"">---生人"",""<img src=\""../../test_img/25.png\"" width=150 style=\""vertical-align:middle\"">---朋友""]","","",""
"","","","","","html-keyboard-response","149","572447","0.0-9.0-0.0-0.0-0.0-1.44","null","<span style='color:GreenYellow; font-size: 70px;'>正确! </span>","null","","","","","","","","","","","","","","","","","","","","","","","","","feedback_test","",""
"","","","","","psychophysics","150","574045","0.0-9.0-0.0-0.0-0.0-0.45","596","","arrowright","","","","","","","","","","","","","key","arrowright","16.66702127659525","735","455.5","arrowright","true","../../test_img/12.png","自我","matching_task","自我","[""<img src=\""../../test_img/12.png\"" width=150 style=\""vertical-align:middle\"">---自我"",""<img src=\""../../test_img/19.png\"" width=150 style=\""vertical-align:middle\"">---生人"",""<img src=\""../../test_img/25.png\"" width=150 style=\""vertical-align:middle\"">---朋友""]","","",""
"","","","","","html-keyboard-response","151","574547","0.0-9.0-0.0-0.0-0.0-1.45","null","<span style='color:GreenYellow; font-size: 70px;'>正确! </span>","null","","","","","","","","","","","","","","","","","","","","","","","","","feedback_test","",""
"","","","","","psychophysics","152","576298","0.0-9.0-0.0-0.0-0.0-0.46","750","","arrowright","","","","","","","","","","","","","key","arrowright","16.6663461538466","735","455.5","arrowright","true","../../test_img/25.png","朋友","matching_task","朋友","[""<img src=\""../../test_img/12.png\"" width=150 style=\""vertical-align:middle\"">---自我"",""<img src=\""../../test_img/19.png\"" width=150 style=\""vertical-align:middle\"">---生人"",""<img src=\""../../test_img/25.png\"" width=150 style=\""vertical-align:middle\"">---朋友""]","","",""
"","","","","","html-keyboard-response","153","576799","0.0-9.0-0.0-0.0-0.0-1.46","null","<span style='color:GreenYellow; font-size: 70px;'>正确! </span>","null","","","","","","","","","","","","","","","","","","","","","","","","","feedback_test","",""
"","","","","","psychophysics","154","578713","0.0-9.0-0.0-0.0-0.0-0.47","912","","arrowleft","","","","","","","","","","","","","key","arrowleft","16.66754385964892","735","455.5","arrowright","false","../../test_img/25.png","朋友","matching_task","朋友","[""<img src=\""../../test_img/12.png\"" width=150 style=\""vertical-align:middle\"">---自我"",""<img src=\""../../test_img/19.png\"" width=150 style=\""vertical-align:middle\"">---生人"",""<img src=\""../../test_img/25.png\"" width=150 style=\""vertical-align:middle\"">---朋友""]","","",""
"","","","","","html-keyboard-response","155","579214","0.0-9.0-0.0-0.0-0.0-1.47","null","<span style='color:red; font-size: 70px;'>错误! </span>","null","","","","","","","","","","","","","","","","","","","","","","","","","feedback_test","",""
"","","","","","psychophysics","156","580833","0.0-9.0-0.0-0.0-0.0-0.48","617","","arrowleft","","","","","","","","","","","","","key","arrowleft","16.66458333333382","735","455.5","arrowleft","true","../../test_img/19.png","朋友","matching_task","生人","[""<img src=\""../../test_img/12.png\"" width=150 style=\""vertical-align:middle\"">---自我"",""<img src=\""../../test_img/19.png\"" width=150 style=\""vertical-align:middle\"">---生人"",""<img src=\""../../test_img/25.png\"" width=150 style=\""vertical-align:middle\"">---朋友""]","","",""
"","","","","","html-keyboard-response","157","581334","0.0-9.0-0.0-0.0-0.0-1.48","null","<span style='color:GreenYellow; font-size: 70px;'>正确! </span>","null","","","","","","","","","","","","","","","","","","","","","","","","","feedback_test","",""
"","","","","","psychophysics","158","583071","0.0-9.0-0.0-0.0-0.0-0.49","735","","arrowleft","","","","","","","","","","","","","key","arrowleft","16.666990291261683","735","455.5","arrowright","false","../../test_img/19.png","生人","matching_task","生人","[""<img src=\""../../test_img/12.png\"" width=150 style=\""vertical-align:middle\"">---自我"",""<img src=\""../../test_img/19.png\"" width=150 style=\""vertical-align:middle\"">---生人"",""<img src=\""../../test_img/25.png\"" width=150 style=\""vertical-align:middle\"">---朋友""]","","",""
"","","","","","html-keyboard-response","159","583573","0.0-9.0-0.0-0.0-0.0-1.49","null","<span style='color:red; font-size: 70px;'>错误! </span>","null","","","","","","","","","","","","","","","","","","","","","","","","","feedback_test","",""
"","","","","","psychophysics","160","585546","0.0-9.0-0.0-0.0-0.0-0.50","971","","arrowleft","","","","","","","","","","","","","key","arrowleft","16.666666666666668","735","455.5","arrowleft","true","../../test_img/25.png","自我","matching_task","朋友","[""<img src=\""../../test_img/12.png\"" width=150 style=\""vertical-align:middle\"">---自我"",""<img src=\""../../test_img/19.png\"" width=150 style=\""vertical-align:middle\"">---生人"",""<img src=\""../../test_img/25.png\"" width=150 style=\""vertical-align:middle\"">---朋友""]","","",""
"","","","","","html-keyboard-response","161","586047","0.0-9.0-0.0-0.0-0.0-1.50","null","<span style='color:GreenYellow; font-size: 70px;'>正确! </span>","null","","","","","","","","","","","","","","","","","","","","","","","","","feedback_test","",""
"","","","","","psychophysics","162","587730","0.0-9.0-0.0-0.0-0.0-0.51","681","","arrowleft","","","","","","","","","","","","","key","arrowleft","16.664000000000232","735","455.5","arrowleft","true","../../test_img/12.png","生人","matching_task","自我","[""<img src=\""../../test_img/12.png\"" width=150 style=\""vertical-align:middle\"">---自我"",""<img src=\""../../test_img/19.png\"" width=150 style=\""vertical-align:middle\"">---生人"",""<img src=\""../../test_img/25.png\"" width=150 style=\""vertical-align:middle\"">---朋友""]","","",""
"","","","","","html-keyboard-response","163","588232","0.0-9.0-0.0-0.0-0.0-1.51","null","<span style='color:GreenYellow; font-size: 70px;'>正确! </span>","null","","","","","","","","","","","","","","","","","","","","","","","","","feedback_test","",""
"","","","","","psychophysics","164","589931","0.0-9.0-0.0-0.0-0.0-0.52","697","","arrowright","","","","","","","","","","","","","key","arrowright","16.659405940593828","735","455.5","arrowright","true","../../test_img/12.png","自我","matching_task","自我","[""<img src=\""../../test_img/12.png\"" width=150 style=\""vertical-align:middle\"">---自我"",""<img src=\""../../test_img/19.png\"" width=150 style=\""vertical-align:middle\"">---生人"",""<img src=\""../../test_img/25.png\"" width=150 style=\""vertical-align:middle\"">---朋友""]","","",""
"","","","","","html-keyboard-response","165","590432","0.0-9.0-0.0-0.0-0.0-1.52","null","<span style='color:GreenYellow; font-size: 70px;'>正确! </span>","null","","","","","","","","","","","","","","","","","","","","","","","","","feedback_test","",""
"","","","","","psychophysics","166","592155","0.0-9.0-0.0-0.0-0.0-0.53","720","","arrowright","","","","","","","","","","","","","key","arrowright","16.657843137254673","735","455.5","arrowright","true","../../test_img/25.png","朋友","matching_task","朋友","[""<img src=\""../../test_img/12.png\"" width=150 style=\""vertical-align:middle\"">---自我"",""<img src=\""../../test_img/19.png\"" width=150 style=\""vertical-align:middle\"">---生人"",""<img src=\""../../test_img/25.png\"" width=150 style=\""vertical-align:middle\"">---朋友""]","","",""
"","","","","","html-keyboard-response","167","592656","0.0-9.0-0.0-0.0-0.0-1.53","null","<span style='color:GreenYellow; font-size: 70px;'>正确! </span>","null","","","","","","","","","","","","","","","","","","","","","","","","","feedback_test","",""
"","","","","","psychophysics","168","594596","0.0-9.0-0.0-0.0-0.0-0.54","937","","arrowright","","","","","","","","","","","","","key","arrowright","16.67478260869646","735","455.5","arrowright","true","../../test_img/12.png","自我","matching_task","自我","[""<img src=\""../../test_img/12.png\"" width=150 style=\""vertical-align:middle\"">---自我"",""<img src=\""../../test_img/19.png\"" width=150 style=\""vertical-align:middle\"">---生人"",""<img src=\""../../test_img/25.png\"" width=150 style=\""vertical-align:middle\"">---朋友""]","","",""
"","","","","","html-keyboard-response","169","595098","0.0-9.0-0.0-0.0-0.0-1.54","null","<span style='color:GreenYellow; font-size: 70px;'>正确! </span>","null","","","","","","","","","","","","","","","","","","","","","","","","","feedback_test","",""
"","","","","","psychophysics","170","596930","0.0-9.0-0.0-0.0-0.0-0.55","829","","arrowleft","","","","","","","","","","","","","key","arrowleft","16.657798165137187","735","455.5","arrowleft","true","../../test_img/12.png","朋友","matching_task","自我","[""<img src=\""../../test_img/12.png\"" width=150 style=\""vertical-align:middle\"">---自我"",""<img src=\""../../test_img/19.png\"" width=150 style=\""vertical-align:middle\"">---生人"",""<img src=\""../../test_img/25.png\"" width=150 style=\""vertical-align:middle\"">---朋友""]","","",""
"","","","","","html-keyboard-response","171","597431","0.0-9.0-0.0-0.0-0.0-1.55","null","<span style='color:GreenYellow; font-size: 70px;'>正确! </span>","null","","","","","","","","","","","","","","","","","","","","","","","","","feedback_test","",""
"","","","","","psychophysics","172","599190","0.0-9.0-0.0-0.0-0.0-0.56","756","","arrowleft","","","","","","","","","","","","","key","arrowleft","16.66634615384548","735","455.5","arrowleft","true","../../test_img/19.png","自我","matching_task","生人","[""<img src=\""../../test_img/12.png\"" width=150 style=\""vertical-align:middle\"">---自我"",""<img src=\""../../test_img/19.png\"" width=150 style=\""vertical-align:middle\"">---生人"",""<img src=\""../../test_img/25.png\"" width=150 style=\""vertical-align:middle\"">---朋友""]","","",""
"","","","","","html-keyboard-response","173","599692","0.0-9.0-0.0-0.0-0.0-1.56","null","<span style='color:GreenYellow; font-size: 70px;'>正确! </span>","null","","","","","","","","","","","","","","","","","","","","","","","","","feedback_test","",""
"","","","","","psychophysics","174","601460","0.0-9.0-0.0-0.0-0.0-0.57","766","","arrowleft","","","","","","","","","","","","","key","arrowleft","16.66634615384548","735","455.5","arrowleft","true","../../test_img/25.png","生人","matching_task","朋友","[""<img src=\""../../test_img/12.png\"" width=150 style=\""vertical-align:middle\"">---自我"",""<img src=\""../../test_img/19.png\"" width=150 style=\""vertical-align:middle\"">---生人"",""<img src=\""../../test_img/25.png\"" width=150 style=\""vertical-align:middle\"">---朋友""]","","",""
"","","","","","html-keyboard-response","175","601961","0.0-9.0-0.0-0.0-0.0-1.57","null","<span style='color:GreenYellow; font-size: 70px;'>正确! </span>","null","","","","","","","","","","","","","","","","","","","","","","","","","feedback_test","",""
"","","","","","psychophysics","176","603780","0.0-9.0-0.0-0.0-0.0-0.58","818","","arrowleft","","","","","","","","","","","","","key","arrowleft","16.666666666666668","735","455.5","arrowright","false","../../test_img/19.png","生人","matching_task","生人","[""<img src=\""../../test_img/12.png\"" width=150 style=\""vertical-align:middle\"">---自我"",""<img src=\""../../test_img/19.png\"" width=150 style=\""vertical-align:middle\"">---生人"",""<img src=\""../../test_img/25.png\"" width=150 style=\""vertical-align:middle\"">---朋友""]","","",""
"","","","","","html-keyboard-response","177","604282","0.0-9.0-0.0-0.0-0.0-1.58","null","<span style='color:red; font-size: 70px;'>错误! </span>","null","","","","","","","","","","","","","","","","","","","","","","","","","feedback_test","",""
"","","","","","psychophysics","178","606046","0.0-9.0-0.0-0.0-0.0-0.59","761","","arrowleft","","","","","","","","","","","","","key","arrowleft","16.666666666666668","735","455.5","arrowright","false","../../test_img/25.png","朋友","matching_task","朋友","[""<img src=\""../../test_img/12.png\"" width=150 style=\""vertical-align:middle\"">---自我"",""<img src=\""../../test_img/19.png\"" width=150 style=\""vertical-align:middle\"">---生人"",""<img src=\""../../test_img/25.png\"" width=150 style=\""vertical-align:middle\"">---朋友""]","","",""
"","","","","","html-keyboard-response","179","606547","0.0-9.0-0.0-0.0-0.0-1.59","null","<span style='color:red; font-size: 70px;'>错误! </span>","null","","","","","","","","","","","","","","","","","","","","","","","","","feedback_test","",""
"","","","","","psychophysics","180","608285","0.0-9.0-0.0-0.0-0.0-0.60","735","","arrowleft","","","","","","","","","","","","","key","arrowleft","16.666990291261683","735","455.5","arrowright","false","../../test_img/19.png","生人","matching_task","生人","[""<img src=\""../../test_img/12.png\"" width=150 style=\""vertical-align:middle\"">---自我"",""<img src=\""../../test_img/19.png\"" width=150 style=\""vertical-align:middle\"">---生人"",""<img src=\""../../test_img/25.png\"" width=150 style=\""vertical-align:middle\"">---朋友""]","","",""
"","","","","","html-keyboard-response","181","608787","0.0-9.0-0.0-0.0-0.0-1.60","null","<span style='color:red; font-size: 70px;'>错误! </span>","null","","","","","","","","","","","","","","","","","","","","","","","","","feedback_test","",""
"","","","","","psychophysics","182","610746","0.0-9.0-0.0-0.0-0.0-0.61","956","","arrowright","","","","","","","","","","","","","key","arrowright","16.674137931034082","735","455.5","arrowleft","false","../../test_img/25.png","自我","matching_task","朋友","[""<img src=\""../../test_img/12.png\"" width=150 style=\""vertical-align:middle\"">---自我"",""<img src=\""../../test_img/19.png\"" width=150 style=\""vertical-align:middle\"">---生人"",""<img src=\""../../test_img/25.png\"" width=150 style=\""vertical-align:middle\"">---朋友""]","","",""
"","","","","","html-keyboard-response","183","611247","0.0-9.0-0.0-0.0-0.0-1.61","null","<span style='color:red; font-size: 70px;'>错误! </span>","null","","","","","","","","","","","","","","","","","","","","","","","","","feedback_test","",""
"","","","","","psychophysics","184","613244","0.0-9.0-0.0-0.0-0.0-0.62","995","","arrowleft","","","","","","","","","","","","","key","arrowleft","16.666101694915056","735","455.5","arrowleft","true","../../test_img/12.png","生人","matching_task","自我","[""<img src=\""../../test_img/12.png\"" width=150 style=\""vertical-align:middle\"">---自我"",""<img src=\""../../test_img/19.png\"" width=150 style=\""vertical-align:middle\"">---生人"",""<img src=\""../../test_img/25.png\"" width=150 style=\""vertical-align:middle\"">---朋友""]","","",""
"","","","","","html-keyboard-response","185","613745","0.0-9.0-0.0-0.0-0.0-1.62","null","<span style='color:GreenYellow; font-size: 70px;'>正确! </span>","null","","","","","","","","","","","","","","","","","","","","","","","","","feedback_test","",""
"","","","","","psychophysics","186","615734","0.0-9.0-0.0-0.0-0.0-0.63","986","","arrowright","","","","","","","","","","","","","key","arrowright","16.665254237288135","735","455.5","arrowright","true","../../test_img/12.png","自我","matching_task","自我","[""<img src=\""../../test_img/12.png\"" width=150 style=\""vertical-align:middle\"">---自我"",""<img src=\""../../test_img/19.png\"" width=150 style=\""vertical-align:middle\"">---生人"",""<img src=\""../../test_img/25.png\"" width=150 style=\""vertical-align:middle\"">---朋友""]","","",""
"","","","","","html-keyboard-response","187","616235","0.0-9.0-0.0-0.0-0.0-1.63","null","<span style='color:GreenYellow; font-size: 70px;'>正确! </span>","null","","","","","","","","","","","","","","","","","","","","","","","","","feedback_test","",""
"","","","","","psychophysics","188","618128","0.0-9.0-0.0-0.0-0.0-0.64","889","","arrowright","","","","","","","","","","","","","key","arrowright","16.666666666666668","735","455.5","arrowright","true","../../test_img/25.png","朋友","matching_task","朋友","[""<img src=\""../../test_img/12.png\"" width=150 style=\""vertical-align:middle\"">---自我"",""<img src=\""../../test_img/19.png\"" width=150 style=\""vertical-align:middle\"">---生人"",""<img src=\""../../test_img/25.png\"" width=150 style=\""vertical-align:middle\"">---朋友""]","","",""
"","","","","","html-keyboard-response","189","618629","0.0-9.0-0.0-0.0-0.0-1.64","null","<span style='color:GreenYellow; font-size: 70px;'>正确! </span>","null","","","","","","","","","","","","","","","","","","","","","","","","","feedback_test","",""
"","","","","","psychophysics","190","620912","0.0-9.0-0.0-0.0-0.0-0.65","1281","","arrowleft","","","","","","","","","","","","","key","arrowleft","16.669117647058822","735","455.5","arrowleft","true","../../test_img/25.png","生人","matching_task","朋友","[""<img src=\""../../test_img/12.png\"" width=150 style=\""vertical-align:middle\"">---自我"",""<img src=\""../../test_img/19.png\"" width=150 style=\""vertical-align:middle\"">---生人"",""<img src=\""../../test_img/25.png\"" width=150 style=\""vertical-align:middle\"">---朋友""]","","",""
"","","","","","html-keyboard-response","191","621414","0.0-9.0-0.0-0.0-0.0-1.65","null","<span style='color:GreenYellow; font-size: 70px;'>正确! </span>","null","","","","","","","","","","","","","","","","","","","","","","","","","feedback_test","",""
"","","","","","psychophysics","192","623088","0.0-9.0-0.0-0.0-0.0-0.66","672","","arrowright","","","","","","","","","","","","","key","arrowright","16.666666666666668","735","455.5","arrowright","true","../../test_img/12.png","自我","matching_task","自我","[""<img src=\""../../test_img/12.png\"" width=150 style=\""vertical-align:middle\"">---自我"",""<img src=\""../../test_img/19.png\"" width=150 style=\""vertical-align:middle\"">---生人"",""<img src=\""../../test_img/25.png\"" width=150 style=\""vertical-align:middle\"">---朋友""]","","",""
"","","","","","html-keyboard-response","193","623589","0.0-9.0-0.0-0.0-0.0-1.66","null","<span style='color:GreenYellow; font-size: 70px;'>正确! </span>","null","","","","","","","","","","","","","","","","","","","","","","","","","feedback_test","",""
"","","","","","psychophysics","194","625998","0.0-9.0-0.0-0.0-0.0-0.67","1406","","arrowright","","","","","","","","","","","","","key","arrowright","16.67272727272695","735","455.5","arrowleft","false","../../test_img/19.png","自我","matching_task","生人","[""<img src=\""../../test_img/12.png\"" width=150 style=\""vertical-align:middle\"">---自我"",""<img src=\""../../test_img/19.png\"" width=150 style=\""vertical-align:middle\"">---生人"",""<img src=\""../../test_img/25.png\"" width=150 style=\""vertical-align:middle\"">---朋友""]","","",""
"","","","","","html-keyboard-response","195","626499","0.0-9.0-0.0-0.0-0.0-1.67","null","<span style='color:red; font-size: 70px;'>错误! </span>","null","","","","","","","","","","","","","","","","","","","","","","","","","feedback_test","",""
"","","","","","psychophysics","196","628415","0.0-9.0-0.0-0.0-0.0-0.68","914","","arrowleft","","","","","","","","","","","","","key","arrowleft","16.67192982456222","735","455.5","arrowleft","true","../../test_img/12.png","朋友","matching_task","自我","[""<img src=\""../../test_img/12.png\"" width=150 style=\""vertical-align:middle\"">---自我"",""<img src=\""../../test_img/19.png\"" width=150 style=\""vertical-align:middle\"">---生人"",""<img src=\""../../test_img/25.png\"" width=150 style=\""vertical-align:middle\"">---朋友""]","","",""
"","","","","","html-keyboard-response","197","628917","0.0-9.0-0.0-0.0-0.0-1.68","null","<span style='color:GreenYellow; font-size: 70px;'>正确! </span>","null","","","","","","","","","","","","","","","","","","","","","","","","","feedback_test","",""
"","","","","","psychophysics","198","630680","0.0-9.0-0.0-0.0-0.0-0.69","761","","arrowleft","","","","","","","","","","","","","key","arrowleft","16.668571428570985","735","455.5","arrowleft","true","../../test_img/19.png","朋友","matching_task","生人","[""<img src=\""../../test_img/12.png\"" width=150 style=\""vertical-align:middle\"">---自我"",""<img src=\""../../test_img/19.png\"" width=150 style=\""vertical-align:middle\"">---生人"",""<img src=\""../../test_img/25.png\"" width=150 style=\""vertical-align:middle\"">---朋友""]","","",""
"","","","","","html-keyboard-response","199","631181","0.0-9.0-0.0-0.0-0.0-1.69","null","<span style='color:GreenYellow; font-size: 70px;'>正确! </span>","null","","","","","","","","","","","","","","","","","","","","","","","","","feedback_test","",""
"","","","","","psychophysics","200","633047","0.0-9.0-0.0-0.0-0.0-0.70","863","","arrowright","","","","","","","","","","","","","key","arrowright","16.659459459460088","735","455.5","arrowright","true","../../test_img/25.png","朋友","matching_task","朋友","[""<img src=\""../../test_img/12.png\"" width=150 style=\""vertical-align:middle\"">---自我"",""<img src=\""../../test_img/19.png\"" width=150 style=\""vertical-align:middle\"">---生人"",""<img src=\""../../test_img/25.png\"" width=150 style=\""vertical-align:middle\"">---朋友""]","","",""
"","","","","","html-keyboard-response","201","633548","0.0-9.0-0.0-0.0-0.0-1.70","null","<span style='color:GreenYellow; font-size: 70px;'>正确! </span>","null","","","","","","","","","","","","","","","","","","","","","","","","","feedback_test","",""
"","","","","","psychophysics","202","635565","0.0-9.0-0.0-0.0-0.0-0.71","1015","","arrowright","","","","","","","","","","","","","key","arrowright","16.6625","735","455.5","arrowright","true","../../test_img/19.png","生人","matching_task","生人","[""<img src=\""../../test_img/12.png\"" width=150 style=\""vertical-align:middle\"">---自我"",""<img src=\""../../test_img/19.png\"" width=150 style=\""vertical-align:middle\"">---生人"",""<img src=\""../../test_img/25.png\"" width=150 style=\""vertical-align:middle\"">---朋友""]","","",""
"","","","","","html-keyboard-response","203","636067","0.0-9.0-0.0-0.0-0.0-1.71","null","<span style='color:GreenYellow; font-size: 70px;'>正确! </span>","null","","","","","","","","","","","","","","","","","","","","","","","","","feedback_test","",""
"","","","","","html-keyboard-response","204","645302","0.0-9.0-0.0-0.0-1.0","9233","<style>.context{color:white; font-size: 35px; line-height:40px}</style>                          <div><p class='context'>您正确回答了78% 的试次。</p><p class='context'>您的平均反应时为851毫秒。</p><p class='context'>请按任意键进入休息</p></div>"," ","","","","","","","","","","","","","","","","","","","","","","","","","","",""
"","","","","","html-button-response","205","660710","0.0-9.0-0.0-0.0-2.0","15406","
                    <p>知觉匹配任务中，您还剩余4组实验</p>
                    <p>现在是休息时间，当您结束休息后，您可以点击 结束休息 按钮 继续</p>
                    <p>建议休息时间还剩余<span id=""iii"">60</span>秒</p>","0","","","","","","","","","","","","","","","","","","","","","","","","","","",""
"","","","","","psychophysics","206","662530","0.0-9.0-0.0-0.0-0.1-0.72","818","","arrowright","","","","","","","","","","","","","key","arrowright","16.662037037037038","735","455.5","arrowright","true","../../test_img/19.png","生人","matching_task","生人","[""<img src=\""../../test_img/12.png\"" width=150 style=\""vertical-align:middle\"">---自我"",""<img src=\""../../test_img/19.png\"" width=150 style=\""vertical-align:middle\"">---生人"",""<img src=\""../../test_img/25.png\"" width=150 style=\""vertical-align:middle\"">---朋友""]","","",""
"","","","","","html-keyboard-response","207","663031","0.0-9.0-0.0-0.0-0.1-1.72","null","<span style='color:GreenYellow; font-size: 70px;'>正确! </span>","null","","","","","","","","","","","","","","","","","","","","","","","","","feedback_test","",""
"","","","","","psychophysics","208","664714","0.0-9.0-0.0-0.0-0.1-0.73","681","","arrowright","","","","","","","","","","","","","key","arrowright","16.675999999999767","735","455.5","arrowleft","false","../../test_img/25.png","生人","matching_task","朋友","[""<img src=\""../../test_img/12.png\"" width=150 style=\""vertical-align:middle\"">---自我"",""<img src=\""../../test_img/19.png\"" width=150 style=\""vertical-align:middle\"">---生人"",""<img src=\""../../test_img/25.png\"" width=150 style=\""vertical-align:middle\"">---朋友""]","","",""
"","","","","","html-keyboard-response","209","665216","0.0-9.0-0.0-0.0-0.1-1.73","null","<span style='color:red; font-size: 70px;'>错误! </span>","null","","","","","","","","","","","","","","","","","","","","","","","","","feedback_test","",""
"","","","","","psychophysics","210","666998","0.0-9.0-0.0-0.0-0.1-0.74","780","","arrowleft","","","","","","","","","","","","","key","arrowleft","16.667924528301228","735","455.5","arrowleft","true","../../test_img/12.png","生人","matching_task","自我","[""<img src=\""../../test_img/12.png\"" width=150 style=\""vertical-align:middle\"">---自我"",""<img src=\""../../test_img/19.png\"" width=150 style=\""vertical-align:middle\"">---生人"",""<img src=\""../../test_img/25.png\"" width=150 style=\""vertical-align:middle\"">---朋友""]","","",""
"","","","","","html-keyboard-response","211","667499","0.0-9.0-0.0-0.0-0.1-1.74","null","<span style='color:GreenYellow; font-size: 70px;'>正确! </span>","null","","","","","","","","","","","","","","","","","","","","","","","","","feedback_test","",""
"","","","","","psychophysics","212","669397","0.0-9.0-0.0-0.0-0.1-0.75","896","","arrowleft","","","","","","","","","","","","","key","arrowleft","16.66637168141634","735","455.5","arrowleft","true","../../test_img/25.png","自我","matching_task","朋友","[""<img src=\""../../test_img/12.png\"" width=150 style=\""vertical-align:middle\"">---自我"",""<img src=\""../../test_img/19.png\"" width=150 style=\""vertical-align:middle\"">---生人"",""<img src=\""../../test_img/25.png\"" width=150 style=\""vertical-align:middle\"">---朋友""]","","",""
"","","","","","html-keyboard-response","213","669898","0.0-9.0-0.0-0.0-0.1-1.75","null","<span style='color:GreenYellow; font-size: 70px;'>正确! </span>","null","","","","","","","","","","","","","","","","","","","","","","","","","feedback_test","",""
"","","","","","psychophysics","214","671525","0.0-9.0-0.0-0.0-0.1-0.76","624","","arrowright","","","","","","","","","","","","","key","arrowright","16.674999999999272","735","455.5","arrowright","true","../../test_img/12.png","自我","matching_task","自我","[""<img src=\""../../test_img/12.png\"" width=150 style=\""vertical-align:middle\"">---自我"",""<img src=\""../../test_img/19.png\"" width=150 style=\""vertical-align:middle\"">---生人"",""<img src=\""../../test_img/25.png\"" width=150 style=\""vertical-align:middle\"">---朋友""]","","",""
"","","","","","html-keyboard-response","215","672025","0.0-9.0-0.0-0.0-0.1-1.76","null","<span style='color:GreenYellow; font-size: 70px;'>正确! </span>","null","","","","","","","","","","","","","","","","","","","","","","","","","feedback_test","",""
"","","","","","psychophysics","216","673929","0.0-9.0-0.0-0.0-0.1-0.77","901","","arrowleft","","","","","","","","","","","","","key","arrowleft","16.658407079646224","735","455.5","arrowleft","true","../../test_img/19.png","自我","matching_task","生人","[""<img src=\""../../test_img/12.png\"" width=150 style=\""vertical-align:middle\"">---自我"",""<img src=\""../../test_img/19.png\"" width=150 style=\""vertical-align:middle\"">---生人"",""<img src=\""../../test_img/25.png\"" width=150 style=\""vertical-align:middle\"">---朋友""]","","",""
"","","","","","html-keyboard-response","217","674430","0.0-9.0-0.0-0.0-0.1-1.77","null","<span style='color:GreenYellow; font-size: 70px;'>正确! </span>","null","","","","","","","","","","","","","","","","","","","","","","","","","feedback_test","",""
"","","","","","psychophysics","218","676138","0.0-9.0-0.0-0.0-0.1-0.78","706","","arrowright","","","","","","","","","","","","","key","arrowright","16.677227722772507","735","455.5","arrowleft","false","../../test_img/12.png","朋友","matching_task","自我","[""<img src=\""../../test_img/12.png\"" width=150 style=\""vertical-align:middle\"">---自我"",""<img src=\""../../test_img/19.png\"" width=150 style=\""vertical-align:middle\"">---生人"",""<img src=\""../../test_img/25.png\"" width=150 style=\""vertical-align:middle\"">---朋友""]","","",""
"","","","","","html-keyboard-response","219","676639","0.0-9.0-0.0-0.0-0.1-1.78","null","<span style='color:red; font-size: 70px;'>错误! </span>","null","","","","","","","","","","","","","","","","","","","","","","","","","feedback_test","",""
"","","","","","psychophysics","220","678343","0.0-9.0-0.0-0.0-0.1-0.79","701","","arrowleft","","","","","","","","","","","","","key","arrowleft","16.667000000000698","735","455.5","arrowleft","true","../../test_img/19.png","朋友","matching_task","生人","[""<img src=\""../../test_img/12.png\"" width=150 style=\""vertical-align:middle\"">---自我"",""<img src=\""../../test_img/19.png\"" width=150 style=\""vertical-align:middle\"">---生人"",""<img src=\""../../test_img/25.png\"" width=150 style=\""vertical-align:middle\"">---朋友""]","","",""
"","","","","","html-keyboard-response","221","678844","0.0-9.0-0.0-0.0-0.1-1.79","null","<span style='color:GreenYellow; font-size: 70px;'>正确! </span>","null","","","","","","","","","","","","","","","","","","","","","","","","","feedback_test","",""
"","","","","","psychophysics","222","680530","0.0-9.0-0.0-0.0-0.1-0.80","684","","arrowright","","","","","","","","","","","","","key","arrowright","16.667000000000698","735","455.5","arrowright","true","../../test_img/25.png","朋友","matching_task","朋友","[""<img src=\""../../test_img/12.png\"" width=150 style=\""vertical-align:middle\"">---自我"",""<img src=\""../../test_img/19.png\"" width=150 style=\""vertical-align:middle\"">---生人"",""<img src=\""../../test_img/25.png\"" width=150 style=\""vertical-align:middle\"">---朋友""]","","",""
"","","","","","html-keyboard-response","223","681032","0.0-9.0-0.0-0.0-0.1-1.80","null","<span style='color:GreenYellow; font-size: 70px;'>正确! </span>","null","","","","","","","","","","","","","","","","","","","","","","","","","feedback_test","",""
"","","","","","psychophysics","224","683129","0.0-9.0-0.0-0.0-0.1-0.81","1096","","arrowright","","","","","","","","","","","","","key","arrowright","16.666400000000372","735","455.5","arrowright","true","../../test_img/19.png","生人","matching_task","生人","[""<img src=\""../../test_img/12.png\"" width=150 style=\""vertical-align:middle\"">---自我"",""<img src=\""../../test_img/19.png\"" width=150 style=\""vertical-align:middle\"">---生人"",""<img src=\""../../test_img/25.png\"" width=150 style=\""vertical-align:middle\"">---朋友""]","","",""
"","","","","","html-keyboard-response","225","683631","0.0-9.0-0.0-0.0-0.1-1.81","null","<span style='color:GreenYellow; font-size: 70px;'>正确! </span>","null","","","","","","","","","","","","","","","","","","","","","","","","","feedback_test","",""
"","","","","","psychophysics","226","685095","0.0-9.0-0.0-0.0-0.1-0.82","462","","arrowright","","","","","","","","","","","","","key","arrowright","16.666666666666668","735","455.5","arrowright","true","../../test_img/12.png","自我","matching_task","自我","[""<img src=\""../../test_img/12.png\"" width=150 style=\""vertical-align:middle\"">---自我"",""<img src=\""../../test_img/19.png\"" width=150 style=\""vertical-align:middle\"">---生人"",""<img src=\""../../test_img/25.png\"" width=150 style=\""vertical-align:middle\"">---朋友""]","","",""
"","","","","","html-keyboard-response","227","685597","0.0-9.0-0.0-0.0-0.1-1.82","null","<span style='color:GreenYellow; font-size: 70px;'>正确! </span>","null","","","","","","","","","","","","","","","","","","","","","","","","","feedback_test","",""
"","","","","","psychophysics","228","687462","0.0-9.0-0.0-0.0-0.1-0.83","863","","arrowright","","","","","","","","","","","","","key","arrowright","16.670000000000634","735","455.5","arrowright","true","../../test_img/25.png","朋友","matching_task","朋友","[""<img src=\""../../test_img/12.png\"" width=150 style=\""vertical-align:middle\"">---自我"",""<img src=\""../../test_img/19.png\"" width=150 style=\""vertical-align:middle\"">---生人"",""<img src=\""../../test_img/25.png\"" width=150 style=\""vertical-align:middle\"">---朋友""]","","",""
"","","","","","html-keyboard-response","229","687963","0.0-9.0-0.0-0.0-0.1-1.83","null","<span style='color:GreenYellow; font-size: 70px;'>正确! </span>","null","","","","","","","","","","","","","","","","","","","","","","","","","feedback_test","",""
"","","","","","psychophysics","230","689697","0.0-9.0-0.0-0.0-0.1-0.84","732","","arrowleft","","","","","","","","","","","","","key","arrowleft","16.6592233009711","735","455.5","arrowleft","true","../../test_img/19.png","朋友","matching_task","生人","[""<img src=\""../../test_img/12.png\"" width=150 style=\""vertical-align:middle\"">---自我"",""<img src=\""../../test_img/19.png\"" width=150 style=\""vertical-align:middle\"">---生人"",""<img src=\""../../test_img/25.png\"" width=150 style=\""vertical-align:middle\"">---朋友""]","","",""
"","","","","","html-keyboard-response","231","690198","0.0-9.0-0.0-0.0-0.1-1.84","null","<span style='color:GreenYellow; font-size: 70px;'>正确! </span>","null","","","","","","","","","","","","","","","","","","","","","","","","","feedback_test","",""
"","","","","","psychophysics","232","691860","0.0-9.0-0.0-0.0-0.1-0.85","660","","arrowright","","","","","","","","","","","","","key","arrowright","16.66224489795942","735","455.5","arrowright","true","../../test_img/12.png","自我","matching_task","自我","[""<img src=\""../../test_img/12.png\"" width=150 style=\""vertical-align:middle\"">---自我"",""<img src=\""../../test_img/19.png\"" width=150 style=\""vertical-align:middle\"">---生人"",""<img src=\""../../test_img/25.png\"" width=150 style=\""vertical-align:middle\"">---朋友""]","","",""
"","","","","","html-keyboard-response","233","692361","0.0-9.0-0.0-0.0-0.1-1.85","null","<span style='color:GreenYellow; font-size: 70px;'>正确! </span>","null","","","","","","","","","","","","","","","","","","","","","","","","","feedback_test","",""
"","","","","","psychophysics","234","694574","0.0-9.0-0.0-0.0-0.1-0.86","1211","","arrowleft","","","","","","","","","","","","","key","arrowleft","16.674045801526184","735","455.5","arrowleft","true","../../test_img/19.png","自我","matching_task","生人","[""<img src=\""../../test_img/12.png\"" width=150 style=\""vertical-align:middle\"">---自我"",""<img src=\""../../test_img/19.png\"" width=150 style=\""vertical-align:middle\"">---生人"",""<img src=\""../../test_img/25.png\"" width=150 style=\""vertical-align:middle\"">---朋友""]","","",""
"","","","","","html-keyboard-response","235","695075","0.0-9.0-0.0-0.0-0.1-1.86","null","<span style='color:GreenYellow; font-size: 70px;'>正确! </span>","null","","","","","","","","","","","","","","","","","","","","","","","","","feedback_test","",""
"","","","","","psychophysics","236","696882","0.0-9.0-0.0-0.0-0.1-0.87","804","","arrowright","","","","","","","","","","","","","key","arrowright","16.666355140186262","735","455.5","arrowright","true","../../test_img/12.png","自我","matching_task","自我","[""<img src=\""../../test_img/12.png\"" width=150 style=\""vertical-align:middle\"">---自我"",""<img src=\""../../test_img/19.png\"" width=150 style=\""vertical-align:middle\"">---生人"",""<img src=\""../../test_img/25.png\"" width=150 style=\""vertical-align:middle\"">---朋友""]","","",""
"","","","","","html-keyboard-response","237","697383","0.0-9.0-0.0-0.0-0.1-1.87","null","<span style='color:GreenYellow; font-size: 70px;'>正确! </span>","null","","","","","","","","","","","","","","","","","","","","","","","","","feedback_test","",""
"","","","","","psychophysics","238","699150","0.0-9.0-0.0-0.0-0.1-0.88","765","","arrowright","","","","","","","","","","","","","key","arrowright","16.666666666666668","735","455.5","arrowright","true","../../test_img/19.png","生人","matching_task","生人","[""<img src=\""../../test_img/12.png\"" width=150 style=\""vertical-align:middle\"">---自我"",""<img src=\""../../test_img/19.png\"" width=150 style=\""vertical-align:middle\"">---生人"",""<img src=\""../../test_img/25.png\"" width=150 style=\""vertical-align:middle\"">---朋友""]","","",""
"","","","","","html-keyboard-response","239","699652","0.0-9.0-0.0-0.0-0.1-1.88","null","<span style='color:GreenYellow; font-size: 70px;'>正确! </span>","null","","","","","","","","","","","","","","","","","","","","","","","","","feedback_test","",""
"","","","","","psychophysics","240","701453","0.0-9.0-0.0-0.0-0.1-0.89","799","","arrowright","","","","","","","","","","","","","key","arrowright","16.666037735848835","735","455.5","arrowright","true","../../test_img/19.png","生人","matching_task","生人","[""<img src=\""../../test_img/12.png\"" width=150 style=\""vertical-align:middle\"">---自我"",""<img src=\""../../test_img/19.png\"" width=150 style=\""vertical-align:middle\"">---生人"",""<img src=\""../../test_img/25.png\"" width=150 style=\""vertical-align:middle\"">---朋友""]","","",""
"","","","","","html-keyboard-response","241","701954","0.0-9.0-0.0-0.0-0.1-1.89","null","<span style='color:GreenYellow; font-size: 70px;'>正确! </span>","null","","","","","","","","","","","","","","","","","","","","","","","","","feedback_test","",""
"","","","","","psychophysics","242","703764","0.0-9.0-0.0-0.0-0.1-0.90","808","","arrowright","","","","","","","","","","","","","key","arrowright","16.667289719626385","735","455.5","arrowright","true","../../test_img/25.png","朋友","matching_task","朋友","[""<img src=\""../../test_img/12.png\"" width=150 style=\""vertical-align:middle\"">---自我"",""<img src=\""../../test_img/19.png\"" width=150 style=\""vertical-align:middle\"">---生人"",""<img src=\""../../test_img/25.png\"" width=150 style=\""vertical-align:middle\"">---朋友""]","","",""
"","","","","","html-keyboard-response","243","704266","0.0-9.0-0.0-0.0-0.1-1.90","null","<span style='color:GreenYellow; font-size: 70px;'>正确! </span>","null","","","","","","","","","","","","","","","","","","","","","","","","","feedback_test","",""
"","","","","","psychophysics","244","705846","0.0-9.0-0.0-0.0-0.1-0.91","579","","arrowright","","","","","","","","","","","","","key","arrowright","16.662765957447302","735","455.5","arrowleft","false","../../test_img/12.png","朋友","matching_task","自我","[""<img src=\""../../test_img/12.png\"" width=150 style=\""vertical-align:middle\"">---自我"",""<img src=\""../../test_img/19.png\"" width=150 style=\""vertical-align:middle\"">---生人"",""<img src=\""../../test_img/25.png\"" width=150 style=\""vertical-align:middle\"">---朋友""]","","",""
"","","","","","html-keyboard-response","245","706348","0.0-9.0-0.0-0.0-0.1-1.91","null","<span style='color:red; font-size: 70px;'>错误! </span>","null","","","","","","","","","","","","","","","","","","","","","","","","","feedback_test","",""
"","","","","","psychophysics","246","708067","0.0-9.0-0.0-0.0-0.1-0.92","717","","arrowleft","","","","","","","","","","","","","key","arrowleft","16.67549019607866","735","455.5","arrowleft","true","../../test_img/12.png","生人","matching_task","自我","[""<img src=\""../../test_img/12.png\"" width=150 style=\""vertical-align:middle\"">---自我"",""<img src=\""../../test_img/19.png\"" width=150 style=\""vertical-align:middle\"">---生人"",""<img src=\""../../test_img/25.png\"" width=150 style=\""vertical-align:middle\"">---朋友""]","","",""
"","","","","","html-keyboard-response","247","708568","0.0-9.0-0.0-0.0-0.1-1.92","null","<span style='color:GreenYellow; font-size: 70px;'>正确! </span>","null","","","","","","","","","","","","","","","","","","","","","","","","","feedback_test","",""
"","","","","","psychophysics","248","710678","0.0-9.0-0.0-0.0-0.1-0.93","1108","","arrowleft","","","","","","","","","","","","","key","arrowleft","16.66239999999944","735","455.5","arrowleft","true","../../test_img/25.png","自我","matching_task","朋友","[""<img src=\""../../test_img/12.png\"" width=150 style=\""vertical-align:middle\"">---自我"",""<img src=\""../../test_img/19.png\"" width=150 style=\""vertical-align:middle\"">---生人"",""<img src=\""../../test_img/25.png\"" width=150 style=\""vertical-align:middle\"">---朋友""]","","",""
"","","","","","html-keyboard-response","249","711180","0.0-9.0-0.0-0.0-0.1-1.93","null","<span style='color:GreenYellow; font-size: 70px;'>正确! </span>","null","","","","","","","","","","","","","","","","","","","","","","","","","feedback_test","",""
"","","","","","psychophysics","250","713031","0.0-9.0-0.0-0.0-0.1-0.94","850","","arrowleft","","","","","","","","","","","","","key","arrowleft","16.660909090908667","735","455.5","arrowleft","true","../../test_img/25.png","生人","matching_task","朋友","[""<img src=\""../../test_img/12.png\"" width=150 style=\""vertical-align:middle\"">---自我"",""<img src=\""../../test_img/19.png\"" width=150 style=\""vertical-align:middle\"">---生人"",""<img src=\""../../test_img/25.png\"" width=150 style=\""vertical-align:middle\"">---朋友""]","","",""
"","","","","","html-keyboard-response","251","713533","0.0-9.0-0.0-0.0-0.1-1.94","null","<span style='color:GreenYellow; font-size: 70px;'>正确! </span>","null","","","","","","","","","","","","","","","","","","","","","","","","","feedback_test","",""
"","","","","","psychophysics","252","715804","0.0-9.0-0.0-0.0-0.1-0.95","1269","","arrowright","","","","","","","","","","","","","key","arrowright","16.666666666666668","735","455.5","arrowright","true","../../test_img/25.png","朋友","matching_task","朋友","[""<img src=\""../../test_img/12.png\"" width=150 style=\""vertical-align:middle\"">---自我"",""<img src=\""../../test_img/19.png\"" width=150 style=\""vertical-align:middle\"">---生人"",""<img src=\""../../test_img/25.png\"" width=150 style=\""vertical-align:middle\"">---朋友""]","","",""
"","","","","","html-keyboard-response","253","716306","0.0-9.0-0.0-0.0-0.1-1.95","null","<span style='color:GreenYellow; font-size: 70px;'>正确! </span>","null","","","","","","","","","","","","","","","","","","","","","","","","","feedback_test","",""
"","","","","","psychophysics","254","717968","0.0-9.0-0.0-0.0-0.1-0.96","660","","arrowright","","","","","","","","","","","","","key","arrowright","16.657142857143096","735","455.5","arrowright","true","../../test_img/12.png","自我","matching_task","自我","[""<img src=\""../../test_img/12.png\"" width=150 style=\""vertical-align:middle\"">---自我"",""<img src=\""../../test_img/19.png\"" width=150 style=\""vertical-align:middle\"">---生人"",""<img src=\""../../test_img/25.png\"" width=150 style=\""vertical-align:middle\"">---朋友""]","","",""
"","","","","","html-keyboard-response","255","718470","0.0-9.0-0.0-0.0-0.1-1.96","null","<span style='color:GreenYellow; font-size: 70px;'>正确! </span>","null","","","","","","","","","","","","","","","","","","","","","","","","","feedback_test","",""
