"success","timeout","failed_images","failed_audio","failed_video","trial_type","trial_index","time_elapsed","internal_node_id","rt","stimulus","response","value","item_width_mm","item_height_mm","item_width_px","px2mm","view_dist_mm","item_width_deg","px2deg","scale_factor","win_width_deg","win_height_deg","view_history","response_type","key_press","avg_frame_time","center_x","center_y","correct_response","correct","Image","word","condition","shape","association","screen_id","LeftLable","RightLable"
"true","false","[]","[]","[]","preload","0","1626","0.0-0.0","","","","","","","","","","","","","","","","","","","","","","","","","","","","","",""
"","","","","","html-keyboard-response","1","36743","0.0-1.0","35116","
     <p>您好，欢迎参加本次实验。</p>
     <p>为充分保障您的权利，请确保您已经知晓并同意《参与实验同意书》以及《数据公开知情同意书》。</p>
     <p>如果您未见过上述内容，请咨询实验员。</p>
     <p>如果您选择继续实验，则表示您已经清楚两份知情同意书的内容并同意。</p>
     <p> <div style = ""color: green""><按任意键至下页></div> </p>
     ","b","","","","","","","","","","","","","","","","","","","","","","","","","","",""
"","","","","","html-keyboard-response","2","39187","0.0-2.0","2443","
     <p>本实验首先需要您填写一些基本个人信息。</p>
     <p> <div style = ""color: green""><按任意键至下页></div></p>
     ","n","","","","","","","","","","","","","","","","","","","","","","","","","","",""
"","","","","","call-function","3","39187","0.0-3.0-0.0","","","","","","","","","","","","","","","","","","","","","","","","","","","","","",""
"","","","","","survey-html-form","4","47643","0.0-3.0-1.0","8453","","{""Q0"":""14""}","","","","","","","","","","","","","","","","","","","","","","","","","","",""
"","","","","","html-button-response","5","48713","0.0-3.0-2.0","1068","<p style = 'color : white'>您的性别</p>","1","","","","","","","","","","","","","","","","","","","","","","","","","","",""
"","","","","","survey-html-form","6","51480","0.0-3.0-3.0","2766","","{""Q0"":""1999""}","","","","","","","","","","","","","","","","","","","","","","","","","","",""
"","","","","","survey-html-form","7","53721","0.0-3.0-4.0","2240","","{""Q0"":""6""}","","","","","","","","","","","","","","","","","","","","","","","","","","",""
"","","","","","virtual-chinrest","8","165702","0.0-4.0","111980","","","","85.6","53.98","404.671295893347","4.726475765683449","604.98","8.09342591786694","50","0.9415048802977475","30.56","14.08","","","","","","","","","","","","","","","",""
"true","","","","","fullscreen","9","169206","0.0-5.0","","","","","","","","","","","","","","","","","","","","","","","","","","","","","",""
"","","","","","instructions","10","234956","0.0-6.0","65750","","","","","","","","","","","","","","[{""page_index"":0,""viewing_time"":12273},{""page_index"":1,""viewing_time"":25897},{""page_index"":2,""viewing_time"":22625},{""page_index"":3,""viewing_time"":2944},{""page_index"":4,""viewing_time"":2010}]","","","","","","","","","","","","","","",""
"","","","","","psychophysics","11","236368","0.0-7.0-0.0-0.0","410","","arrowright","","","","","","","","","","","","","key","arrowright","16.667469879518002","768","428","arrowleft","false","../../test_img/15.png","朋友","prac_matching_task","朋友","[""<img src=\""../../test_img/26.png\"" width=150 style=\""vertical-align:middle\"">---生人"",""<img src=\""../../test_img/15.png\"" width=150 style=\""vertical-align:middle\"">---朋友"",""<img src=\""../../test_img/22.png\"" width=150 style=\""vertical-align:middle\"">---自我""]","","",""
"","","","","","html-keyboard-response","12","236669","0.0-7.0-0.0-1.0","null","<span style='color:red; font-size: 70px;'>错误! </span>","null","","","","","","","","","","","","","","","","","","","","","","","","","feedback_test","",""
"","","","","","psychophysics","13","238921","0.0-7.0-0.0-0.1","1244","","arrowright","","","","","","","","","","","","","key","arrowright","16.66641791044789","768","428","arrowright","true","../../test_img/26.png","自我","prac_matching_task","生人","[""<img src=\""../../test_img/26.png\"" width=150 style=\""vertical-align:middle\"">---生人"",""<img src=\""../../test_img/15.png\"" width=150 style=\""vertical-align:middle\"">---朋友"",""<img src=\""../../test_img/22.png\"" width=150 style=\""vertical-align:middle\"">---自我""]","","",""
"","","","","","html-keyboard-response","14","239232","0.0-7.0-0.0-1.1","null","<span style='color:GreenYellow; font-size: 70px;'>正确! </span>","null","","","","","","","","","","","","","","","","","","","","","","","","","feedback_test","",""
"","","","","","psychophysics","15","241024","0.0-7.0-0.0-0.2","786","","arrowleft","","","","","","","","","","","","","key","arrowleft","16.666037735849113","768","428","arrowleft","true","../../test_img/15.png","朋友","prac_matching_task","朋友","[""<img src=\""../../test_img/26.png\"" width=150 style=\""vertical-align:middle\"">---生人"",""<img src=\""../../test_img/15.png\"" width=150 style=\""vertical-align:middle\"">---朋友"",""<img src=\""../../test_img/22.png\"" width=150 style=\""vertical-align:middle\"">---自我""]","","",""
"","","","","","html-keyboard-response","16","241341","0.0-7.0-0.0-1.2","null","<span style='color:GreenYellow; font-size: 70px;'>正确! </span>","null","","","","","","","","","","","","","","","","","","","","","","","","","feedback_test","",""
"","","","","","psychophysics","17","243046","0.0-7.0-0.0-0.3","702","","arrowleft","","","","","","","","","","","","","key","arrowleft","16.664356435643622","768","428","arrowleft","true","../../test_img/22.png","自我","prac_matching_task","自我","[""<img src=\""../../test_img/26.png\"" width=150 style=\""vertical-align:middle\"">---生人"",""<img src=\""../../test_img/15.png\"" width=150 style=\""vertical-align:middle\"">---朋友"",""<img src=\""../../test_img/22.png\"" width=150 style=\""vertical-align:middle\"">---自我""]","","",""
"","","","","","html-keyboard-response","18","243359","0.0-7.0-0.0-1.3","null","<span style='color:GreenYellow; font-size: 70px;'>正确! </span>","null","","","","","","","","","","","","","","","","","","","","","","","","","feedback_test","",""
"","","","","","psychophysics","19","245653","0.0-7.0-0.0-0.4","1292","","arrowright","","","","","","","","","","","","","key","arrowright","16.658088235294116","768","428","arrowright","true","../../test_img/15.png","自我","prac_matching_task","朋友","[""<img src=\""../../test_img/26.png\"" width=150 style=\""vertical-align:middle\"">---生人"",""<img src=\""../../test_img/15.png\"" width=150 style=\""vertical-align:middle\"">---朋友"",""<img src=\""../../test_img/22.png\"" width=150 style=\""vertical-align:middle\"">---自我""]","","",""
"","","","","","html-keyboard-response","20","245963","0.0-7.0-0.0-1.4","null","<span style='color:GreenYellow; font-size: 70px;'>正确! </span>","null","","","","","","","","","","","","","","","","","","","","","","","","","feedback_test","",""
"","","","","","psychophysics","21","247994","0.0-7.0-0.0-0.5","1020","","arrowleft","","","","","","","","","","","","","key","arrowleft","16.663636363636268","768","428","arrowleft","true","../../test_img/26.png","生人","prac_matching_task","生人","[""<img src=\""../../test_img/26.png\"" width=150 style=\""vertical-align:middle\"">---生人"",""<img src=\""../../test_img/15.png\"" width=150 style=\""vertical-align:middle\"">---朋友"",""<img src=\""../../test_img/22.png\"" width=150 style=\""vertical-align:middle\"">---自我""]","","",""
"","","","","","html-keyboard-response","22","248298","0.0-7.0-0.0-1.5","null","<span style='color:GreenYellow; font-size: 70px;'>正确! </span>","null","","","","","","","","","","","","","","","","","","","","","","","","","feedback_test","",""
"","","","","","psychophysics","23","249796","0.0-7.0-0.0-0.6","486","","arrowleft","","","","","","","","","","","","","key","arrowleft","16.667415730337012","768","428","arrowleft","true","../../test_img/26.png","生人","prac_matching_task","生人","[""<img src=\""../../test_img/26.png\"" width=150 style=\""vertical-align:middle\"">---生人"",""<img src=\""../../test_img/15.png\"" width=150 style=\""vertical-align:middle\"">---朋友"",""<img src=\""../../test_img/22.png\"" width=150 style=\""vertical-align:middle\"">---自我""]","","",""
"","","","","","html-keyboard-response","24","250099","0.0-7.0-0.0-1.6","null","<span style='color:GreenYellow; font-size: 70px;'>正确! </span>","null","","","","","","","","","","","","","","","","","","","","","","","","","feedback_test","",""
"","","","","","psychophysics","25","251493","0.0-7.0-0.0-0.7","379","","arrowleft","","","","","","","","","","","","","key","arrowleft","16.667073170731495","768","428","arrowright","false","../../test_img/15.png","生人","prac_matching_task","朋友","[""<img src=\""../../test_img/26.png\"" width=150 style=\""vertical-align:middle\"">---生人"",""<img src=\""../../test_img/15.png\"" width=150 style=\""vertical-align:middle\"">---朋友"",""<img src=\""../../test_img/22.png\"" width=150 style=\""vertical-align:middle\"">---自我""]","","",""
"","","","","","html-keyboard-response","26","251808","0.0-7.0-0.0-1.7","null","<span style='color:red; font-size: 70px;'>错误! </span>","null","","","","","","","","","","","","","","","","","","","","","","","","","feedback_test","",""
"","","","","","psychophysics","27","253692","0.0-7.0-0.0-0.8","882","","arrowright","","","","","","","","","","","","","key","arrowright","16.66486486486476","768","428","arrowright","true","../../test_img/26.png","朋友","prac_matching_task","生人","[""<img src=\""../../test_img/26.png\"" width=150 style=\""vertical-align:middle\"">---生人"",""<img src=\""../../test_img/15.png\"" width=150 style=\""vertical-align:middle\"">---朋友"",""<img src=\""../../test_img/22.png\"" width=150 style=\""vertical-align:middle\"">---自我""]","","",""
"","","","","","html-keyboard-response","28","254003","0.0-7.0-0.0-1.8","null","<span style='color:GreenYellow; font-size: 70px;'>正确! </span>","null","","","","","","","","","","","","","","","","","","","","","","","","","feedback_test","",""
"","","","","","psychophysics","29","255987","0.0-7.0-0.0-0.9","977","","arrowright","","","","","","","","","","","","","key","arrowright","16.666666666666668","768","428","arrowright","true","../../test_img/22.png","生人","prac_matching_task","自我","[""<img src=\""../../test_img/26.png\"" width=150 style=\""vertical-align:middle\"">---生人"",""<img src=\""../../test_img/15.png\"" width=150 style=\""vertical-align:middle\"">---朋友"",""<img src=\""../../test_img/22.png\"" width=150 style=\""vertical-align:middle\"">---自我""]","","",""
"","","","","","html-keyboard-response","30","256303","0.0-7.0-0.0-1.9","null","<span style='color:GreenYellow; font-size: 70px;'>正确! </span>","null","","","","","","","","","","","","","","","","","","","","","","","","","feedback_test","",""
"","","","","","psychophysics","31","258025","0.0-7.0-0.0-0.10","714","","arrowleft","","","","","","","","","","","","","key","arrowleft","16.666666666666668","768","428","arrowleft","true","../../test_img/22.png","自我","prac_matching_task","自我","[""<img src=\""../../test_img/26.png\"" width=150 style=\""vertical-align:middle\"">---生人"",""<img src=\""../../test_img/15.png\"" width=150 style=\""vertical-align:middle\"">---朋友"",""<img src=\""../../test_img/22.png\"" width=150 style=\""vertical-align:middle\"">---自我""]","","",""
"","","","","","html-keyboard-response","32","258334","0.0-7.0-0.0-1.10","null","<span style='color:GreenYellow; font-size: 70px;'>正确! </span>","null","","","","","","","","","","","","","","","","","","","","","","","","","feedback_test","",""
"","","","","","psychophysics","33","260144","0.0-7.0-0.0-0.11","803","","arrowright","","","","","","","","","","","","","key","arrowright","16.665740740740958","768","428","arrowright","true","../../test_img/22.png","朋友","prac_matching_task","自我","[""<img src=\""../../test_img/26.png\"" width=150 style=\""vertical-align:middle\"">---生人"",""<img src=\""../../test_img/15.png\"" width=150 style=\""vertical-align:middle\"">---朋友"",""<img src=\""../../test_img/22.png\"" width=150 style=\""vertical-align:middle\"">---自我""]","","",""
"","","","","","html-keyboard-response","34","260447","0.0-7.0-0.0-1.11","null","<span style='color:GreenYellow; font-size: 70px;'>正确! </span>","null","","","","","","","","","","","","","","","","","","","","","","","","","feedback_test","",""
"","","","","","psychophysics","35","262462","0.0-7.0-0.0-0.12","1004","","arrowright","","","","","","","","","","","","","key","arrowright","16.66750000000029","768","428","arrowright","true","../../test_img/15.png","生人","prac_matching_task","朋友","[""<img src=\""../../test_img/26.png\"" width=150 style=\""vertical-align:middle\"">---生人"",""<img src=\""../../test_img/15.png\"" width=150 style=\""vertical-align:middle\"">---朋友"",""<img src=\""../../test_img/22.png\"" width=150 style=\""vertical-align:middle\"">---自我""]","","",""
"","","","","","html-keyboard-response","36","262770","0.0-7.0-0.0-1.12","null","<span style='color:GreenYellow; font-size: 70px;'>正确! </span>","null","","","","","","","","","","","","","","","","","","","","","","","","","feedback_test","",""
"","","","","","psychophysics","37","264656","0.0-7.0-0.0-0.13","880","","arrowright","","","","","","","","","","","","","key","arrowright","16.66486486486476","768","428","arrowright","true","../../test_img/22.png","生人","prac_matching_task","自我","[""<img src=\""../../test_img/26.png\"" width=150 style=\""vertical-align:middle\"">---生人"",""<img src=\""../../test_img/15.png\"" width=150 style=\""vertical-align:middle\"">---朋友"",""<img src=\""../../test_img/22.png\"" width=150 style=\""vertical-align:middle\"">---自我""]","","",""
"","","","","","html-keyboard-response","38","264965","0.0-7.0-0.0-1.13","null","<span style='color:GreenYellow; font-size: 70px;'>正确! </span>","null","","","","","","","","","","","","","","","","","","","","","","","","","feedback_test","",""
"","","","","","psychophysics","39","266689","0.0-7.0-0.0-0.14","714","","arrowleft","","","","","","","","","","","","","key","arrowleft","16.668627450980505","768","428","arrowleft","true","../../test_img/26.png","生人","prac_matching_task","生人","[""<img src=\""../../test_img/26.png\"" width=150 style=\""vertical-align:middle\"">---生人"",""<img src=\""../../test_img/15.png\"" width=150 style=\""vertical-align:middle\"">---朋友"",""<img src=\""../../test_img/22.png\"" width=150 style=\""vertical-align:middle\"">---自我""]","","",""
"","","","","","html-keyboard-response","40","267004","0.0-7.0-0.0-1.14","null","<span style='color:GreenYellow; font-size: 70px;'>正确! </span>","null","","","","","","","","","","","","","","","","","","","","","","","","","feedback_test","",""
"","","","","","psychophysics","41","268950","0.0-7.0-0.0-0.15","941","","arrowleft","","","","","","","","","","","","","key","arrowleft","16.665517241378907","768","428","arrowleft","true","../../test_img/15.png","朋友","prac_matching_task","朋友","[""<img src=\""../../test_img/26.png\"" width=150 style=\""vertical-align:middle\"">---生人"",""<img src=\""../../test_img/15.png\"" width=150 style=\""vertical-align:middle\"">---朋友"",""<img src=\""../../test_img/22.png\"" width=150 style=\""vertical-align:middle\"">---自我""]","","",""
"","","","","","html-keyboard-response","42","269257","0.0-7.0-0.0-1.15","null","<span style='color:GreenYellow; font-size: 70px;'>正确! </span>","null","","","","","","","","","","","","","","","","","","","","","","","","","feedback_test","",""
"","","","","","psychophysics","43","270997","0.0-7.0-0.0-0.16","738","","arrowright","","","","","","","","","","","","","key","arrowright","16.66504854368932","768","428","arrowright","true","../../test_img/26.png","朋友","prac_matching_task","生人","[""<img src=\""../../test_img/26.png\"" width=150 style=\""vertical-align:middle\"">---生人"",""<img src=\""../../test_img/15.png\"" width=150 style=\""vertical-align:middle\"">---朋友"",""<img src=\""../../test_img/22.png\"" width=150 style=\""vertical-align:middle\"">---自我""]","","",""
"","","","","","html-keyboard-response","44","271305","0.0-7.0-0.0-1.16","null","<span style='color:GreenYellow; font-size: 70px;'>正确! </span>","null","","","","","","","","","","","","","","","","","","","","","","","","","feedback_test","",""
"","","","","","psychophysics","45","273472","0.0-7.0-0.0-0.17","1163","","arrowleft","","","","","","","","","","","","","key","arrowleft","16.667187499999727","768","428","arrowleft","true","../../test_img/22.png","自我","prac_matching_task","自我","[""<img src=\""../../test_img/26.png\"" width=150 style=\""vertical-align:middle\"">---生人"",""<img src=\""../../test_img/15.png\"" width=150 style=\""vertical-align:middle\"">---朋友"",""<img src=\""../../test_img/22.png\"" width=150 style=\""vertical-align:middle\"">---自我""]","","",""
"","","","","","html-keyboard-response","46","273779","0.0-7.0-0.0-1.17","null","<span style='color:GreenYellow; font-size: 70px;'>正确! </span>","null","","","","","","","","","","","","","","","","","","","","","","","","","feedback_test","",""
"","","","","","psychophysics","47","275977","0.0-7.0-0.0-0.18","1186","","arrowleft","","","","","","","","","","","","","key","arrowleft","16.66641221374037","768","428","arrowleft","true","../../test_img/22.png","自我","prac_matching_task","自我","[""<img src=\""../../test_img/26.png\"" width=150 style=\""vertical-align:middle\"">---生人"",""<img src=\""../../test_img/15.png\"" width=150 style=\""vertical-align:middle\"">---朋友"",""<img src=\""../../test_img/22.png\"" width=150 style=\""vertical-align:middle\"">---自我""]","","",""
"","","","","","html-keyboard-response","48","276285","0.0-7.0-0.0-1.18","null","<span style='color:GreenYellow; font-size: 70px;'>正确! </span>","null","","","","","","","","","","","","","","","","","","","","","","","","","feedback_test","",""
"","","","","","psychophysics","49","278115","0.0-7.0-0.0-0.19","823","","arrowright","","","","","","","","","","","","","key","arrowright","16.66605504587188","768","428","arrowright","true","../../test_img/26.png","自我","prac_matching_task","生人","[""<img src=\""../../test_img/26.png\"" width=150 style=\""vertical-align:middle\"">---生人"",""<img src=\""../../test_img/15.png\"" width=150 style=\""vertical-align:middle\"">---朋友"",""<img src=\""../../test_img/22.png\"" width=150 style=\""vertical-align:middle\"">---自我""]","","",""
"","","","","","html-keyboard-response","50","278429","0.0-7.0-0.0-1.19","null","<span style='color:GreenYellow; font-size: 70px;'>正确! </span>","null","","","","","","","","","","","","","","","","","","","","","","","","","feedback_test","",""
"","","","","","psychophysics","51","280303","0.0-7.0-0.0-0.20","865","","arrowleft","","","","","","","","","","","","","key","arrowleft","16.66486486486476","768","428","arrowleft","true","../../test_img/15.png","朋友","prac_matching_task","朋友","[""<img src=\""../../test_img/26.png\"" width=150 style=\""vertical-align:middle\"">---生人"",""<img src=\""../../test_img/15.png\"" width=150 style=\""vertical-align:middle\"">---朋友"",""<img src=\""../../test_img/22.png\"" width=150 style=\""vertical-align:middle\"">---自我""]","","",""
"","","","","","html-keyboard-response","52","280607","0.0-7.0-0.0-1.20","null","<span style='color:GreenYellow; font-size: 70px;'>正确! </span>","null","","","","","","","","","","","","","","","","","","","","","","","","","feedback_test","",""
"","","","","","psychophysics","53","282395","0.0-7.0-0.0-0.21","787","","arrowright","","","","","","","","","","","","","key","arrowright","16.6632075471697","768","428","arrowright","true","../../test_img/22.png","朋友","prac_matching_task","自我","[""<img src=\""../../test_img/26.png\"" width=150 style=\""vertical-align:middle\"">---生人"",""<img src=\""../../test_img/15.png\"" width=150 style=\""vertical-align:middle\"">---朋友"",""<img src=\""../../test_img/22.png\"" width=150 style=\""vertical-align:middle\"">---自我""]","","",""
"","","","","","html-keyboard-response","54","282711","0.0-7.0-0.0-1.21","null","<span style='color:GreenYellow; font-size: 70px;'>正确! </span>","null","","","","","","","","","","","","","","","","","","","","","","","","","feedback_test","",""
"","","","","","psychophysics","55","285225","0.0-7.0-0.0-0.22","null","","null","","","","","","","","","","","","","key","null","16.666666666666668","768","428","arrowright","false","../../test_img/15.png","自我","prac_matching_task","朋友","[""<img src=\""../../test_img/26.png\"" width=150 style=\""vertical-align:middle\"">---生人"",""<img src=\""../../test_img/15.png\"" width=150 style=\""vertical-align:middle\"">---朋友"",""<img src=\""../../test_img/22.png\"" width=150 style=\""vertical-align:middle\"">---自我""]","","",""
"","","","","","html-keyboard-response","56","285541","0.0-7.0-0.0-1.22","null","<span class='add_' style='color:yellow; font-size: 70px;'> 太慢! </span>","null","","","","","","","","","","","","","","","","","","","","","","","","","feedback_test","",""
"","","","","","psychophysics","57","287602","0.0-7.0-0.0-0.23","1059","","arrowleft","","","","","","","","","","","","","key","arrowleft","16.666393442622855","768","428","arrowleft","true","../../test_img/26.png","生人","prac_matching_task","生人","[""<img src=\""../../test_img/26.png\"" width=150 style=\""vertical-align:middle\"">---生人"",""<img src=\""../../test_img/15.png\"" width=150 style=\""vertical-align:middle\"">---朋友"",""<img src=\""../../test_img/22.png\"" width=150 style=\""vertical-align:middle\"">---自我""]","","",""
"","","","","","html-keyboard-response","58","287907","0.0-7.0-0.0-1.23","null","<span style='color:GreenYellow; font-size: 70px;'>正确! </span>","null","","","","","","","","","","","","","","","","","","","","","","","","","feedback_test","",""
"","","","","","html-keyboard-response","59","299653","0.0-8.0","11745","<style>.context{color:white; font-size: 35px; line-height:40px}</style>                          <div><p class='context'>您正确回答了88% 的试次。</p ><p class='context'>您的平均反应时为908毫秒。</p ><p class='context'>恭喜您完成练习。按任意键进入知觉匹配任务正式实验。</p ><p style = 'color:lightgreen; font-size: 35px;' >正式实验与练习要求相同，请您尽可能又快又准地进行按键反应</p><p class='footer' style='font-size: 22px; line-height:40px;'>请将您右手的<span style='color: lightgreen;'>食指与无名指</span>放在电脑键盘的相应键位上进行按键。</p >"," ","","","","","","","","","","","","","","","","","","","","","","","","","","",""
"","","","","","psychophysics","60","301299","0.0-9.0-0.0-0.0-0.0-0.0","641","","arrowleft","","","","","","","","","","","","","key","arrowleft","16.666326530612125","768","428","arrowleft","true","../../test_img/26.png","生人","matching_task","生人","[""<img src=\""../../test_img/26.png\"" width=150 style=\""vertical-align:middle\"">---生人"",""<img src=\""../../test_img/15.png\"" width=150 style=\""vertical-align:middle\"">---朋友"",""<img src=\""../../test_img/22.png\"" width=150 style=\""vertical-align:middle\"">---自我""]","","",""
"","","","","","html-keyboard-response","61","301808","0.0-9.0-0.0-0.0-0.0-1.0","null","<span style='color:GreenYellow; font-size: 70px;'>正确! </span>","null","","","","","","","","","","","","","","","","","","","","","","","","","feedback_test","",""
"","","","","","psychophysics","62","303567","0.0-9.0-0.0-0.0-0.0-0.1","752","","arrowleft","","","","","","","","","","","","","key","arrowleft","16.667307692307357","768","428","arrowleft","true","../../test_img/22.png","自我","matching_task","自我","[""<img src=\""../../test_img/26.png\"" width=150 style=\""vertical-align:middle\"">---生人"",""<img src=\""../../test_img/15.png\"" width=150 style=\""vertical-align:middle\"">---朋友"",""<img src=\""../../test_img/22.png\"" width=150 style=\""vertical-align:middle\"">---自我""]","","",""
"","","","","","html-keyboard-response","63","304077","0.0-9.0-0.0-0.0-0.0-1.1","null","<span style='color:GreenYellow; font-size: 70px;'>正确! </span>","null","","","","","","","","","","","","","","","","","","","","","","","","","feedback_test","",""
"","","","","","psychophysics","64","305670","0.0-9.0-0.0-0.0-0.0-0.2","583","","arrowright","","","","","","","","","","","","","key","arrowright","16.66914893616984","768","428","arrowright","true","../../test_img/26.png","朋友","matching_task","生人","[""<img src=\""../../test_img/26.png\"" width=150 style=\""vertical-align:middle\"">---生人"",""<img src=\""../../test_img/15.png\"" width=150 style=\""vertical-align:middle\"">---朋友"",""<img src=\""../../test_img/22.png\"" width=150 style=\""vertical-align:middle\"">---自我""]","","",""
"","","","","","html-keyboard-response","65","306177","0.0-9.0-0.0-0.0-0.0-1.2","null","<span style='color:GreenYellow; font-size: 70px;'>正确! </span>","null","","","","","","","","","","","","","","","","","","","","","","","","","feedback_test","",""
"","","","","","psychophysics","66","307742","0.0-9.0-0.0-0.0-0.0-0.3","551","","arrowleft","","","","","","","","","","","","","key","arrowleft","16.666666666666668","768","428","arrowleft","true","../../test_img/26.png","生人","matching_task","生人","[""<img src=\""../../test_img/26.png\"" width=150 style=\""vertical-align:middle\"">---生人"",""<img src=\""../../test_img/15.png\"" width=150 style=\""vertical-align:middle\"">---朋友"",""<img src=\""../../test_img/22.png\"" width=150 style=\""vertical-align:middle\"">---自我""]","","",""
"","","","","","html-keyboard-response","67","308249","0.0-9.0-0.0-0.0-0.0-1.3","null","<span style='color:GreenYellow; font-size: 70px;'>正确! </span>","null","","","","","","","","","","","","","","","","","","","","","","","","","feedback_test","",""
"","","","","","psychophysics","68","309993","0.0-9.0-0.0-0.0-0.0-0.4","731","","arrowright","","","","","","","","","","","","","key","arrowright","16.667307692307915","768","428","arrowright","true","../../test_img/15.png","自我","matching_task","朋友","[""<img src=\""../../test_img/26.png\"" width=150 style=\""vertical-align:middle\"">---生人"",""<img src=\""../../test_img/15.png\"" width=150 style=\""vertical-align:middle\"">---朋友"",""<img src=\""../../test_img/22.png\"" width=150 style=\""vertical-align:middle\"">---自我""]","","",""
"","","","","","html-keyboard-response","69","310502","0.0-9.0-0.0-0.0-0.0-1.4","null","<span style='color:GreenYellow; font-size: 70px;'>正确! </span>","null","","","","","","","","","","","","","","","","","","","","","","","","","feedback_test","",""
"","","","","","psychophysics","70","312335","0.0-9.0-0.0-0.0-0.0-0.5","828","","arrowright","","","","","","","","","","","","","key","arrowright","16.665137614678898","768","428","arrowright","true","../../test_img/26.png","自我","matching_task","生人","[""<img src=\""../../test_img/26.png\"" width=150 style=\""vertical-align:middle\"">---生人"",""<img src=\""../../test_img/15.png\"" width=150 style=\""vertical-align:middle\"">---朋友"",""<img src=\""../../test_img/22.png\"" width=150 style=\""vertical-align:middle\"">---自我""]","","",""
"","","","","","html-keyboard-response","71","312846","0.0-9.0-0.0-0.0-0.0-1.5","null","<span style='color:GreenYellow; font-size: 70px;'>正确! </span>","null","","","","","","","","","","","","","","","","","","","","","","","","","feedback_test","",""
"","","","","","psychophysics","72","314729","0.0-9.0-0.0-0.0-0.0-0.6","874","","arrowright","","","","","","","","","","","","","key","arrowright","16.66696428571439","768","428","arrowright","true","../../test_img/22.png","朋友","matching_task","自我","[""<img src=\""../../test_img/26.png\"" width=150 style=\""vertical-align:middle\"">---生人"",""<img src=\""../../test_img/15.png\"" width=150 style=\""vertical-align:middle\"">---朋友"",""<img src=\""../../test_img/22.png\"" width=150 style=\""vertical-align:middle\"">---自我""]","","",""
"","","","","","html-keyboard-response","73","315240","0.0-9.0-0.0-0.0-0.0-1.6","null","<span style='color:GreenYellow; font-size: 70px;'>正确! </span>","null","","","","","","","","","","","","","","","","","","","","","","","","","feedback_test","",""
"","","","","","psychophysics","74","317431","0.0-9.0-0.0-0.0-0.0-0.7","1183","","arrowright","","","","","","","","","","","","","key","arrowright","16.663846153846066","768","428","arrowright","true","../../test_img/15.png","生人","matching_task","朋友","[""<img src=\""../../test_img/26.png\"" width=150 style=\""vertical-align:middle\"">---生人"",""<img src=\""../../test_img/15.png\"" width=150 style=\""vertical-align:middle\"">---朋友"",""<img src=\""../../test_img/22.png\"" width=150 style=\""vertical-align:middle\"">---自我""]","","",""
"","","","","","html-keyboard-response","75","317943","0.0-9.0-0.0-0.0-0.0-1.7","null","<span style='color:GreenYellow; font-size: 70px;'>正确! </span>","null","","","","","","","","","","","","","","","","","","","","","","","","","feedback_test","",""
"","","","","","psychophysics","76","319396","0.0-9.0-0.0-0.0-0.0-0.8","446","","arrowright","","","","","","","","","","","","","key","arrowright","16.665116279069903","768","428","arrowright","true","../../test_img/22.png","生人","matching_task","自我","[""<img src=\""../../test_img/26.png\"" width=150 style=\""vertical-align:middle\"">---生人"",""<img src=\""../../test_img/15.png\"" width=150 style=\""vertical-align:middle\"">---朋友"",""<img src=\""../../test_img/22.png\"" width=150 style=\""vertical-align:middle\"">---自我""]","","",""
"","","","","","html-keyboard-response","77","319908","0.0-9.0-0.0-0.0-0.0-1.8","null","<span style='color:GreenYellow; font-size: 70px;'>正确! </span>","null","","","","","","","","","","","","","","","","","","","","","","","","","feedback_test","",""
"","","","","","psychophysics","78","321499","0.0-9.0-0.0-0.0-0.0-0.9","581","","arrowleft","","","","","","","","","","","","","key","arrowleft","16.667021276595868","768","428","arrowleft","true","../../test_img/15.png","朋友","matching_task","朋友","[""<img src=\""../../test_img/26.png\"" width=150 style=\""vertical-align:middle\"">---生人"",""<img src=\""../../test_img/15.png\"" width=150 style=\""vertical-align:middle\"">---朋友"",""<img src=\""../../test_img/22.png\"" width=150 style=\""vertical-align:middle\"">---自我""]","","",""
"","","","","","html-keyboard-response","79","322005","0.0-9.0-0.0-0.0-0.0-1.9","null","<span style='color:GreenYellow; font-size: 70px;'>正确! </span>","null","","","","","","","","","","","","","","","","","","","","","","","","","feedback_test","",""
"","","","","","psychophysics","80","323695","0.0-9.0-0.0-0.0-0.0-0.10","688","","arrowleft","","","","","","","","","","","","","key","arrowleft","16.662574257425582","768","428","arrowleft","true","../../test_img/15.png","朋友","matching_task","朋友","[""<img src=\""../../test_img/26.png\"" width=150 style=\""vertical-align:middle\"">---生人"",""<img src=\""../../test_img/15.png\"" width=150 style=\""vertical-align:middle\"">---朋友"",""<img src=\""../../test_img/22.png\"" width=150 style=\""vertical-align:middle\"">---自我""]","","",""
"","","","","","html-keyboard-response","81","324210","0.0-9.0-0.0-0.0-0.0-1.10","null","<span style='color:GreenYellow; font-size: 70px;'>正确! </span>","null","","","","","","","","","","","","","","","","","","","","","","","","","feedback_test","",""
"","","","","","psychophysics","82","325673","0.0-9.0-0.0-0.0-0.0-0.11","453","","arrowright","","","","","","","","","","","","","key","arrowright","16.665116279069228","768","428","arrowleft","false","../../test_img/22.png","自我","matching_task","自我","[""<img src=\""../../test_img/26.png\"" width=150 style=\""vertical-align:middle\"">---生人"",""<img src=\""../../test_img/15.png\"" width=150 style=\""vertical-align:middle\"">---朋友"",""<img src=\""../../test_img/22.png\"" width=150 style=\""vertical-align:middle\"">---自我""]","","",""
"","","","","","html-keyboard-response","83","326181","0.0-9.0-0.0-0.0-0.0-1.11","null","<span style='color:red; font-size: 70px;'>错误! </span>","null","","","","","","","","","","","","","","","","","","","","","","","","","feedback_test","",""
"","","","","","psychophysics","84","328137","0.0-9.0-0.0-0.0-0.0-0.12","947","","arrowleft","","","","","","","","","","","","","key","arrowleft","16.666086956522044","768","428","arrowleft","true","../../test_img/26.png","生人","matching_task","生人","[""<img src=\""../../test_img/26.png\"" width=150 style=\""vertical-align:middle\"">---生人"",""<img src=\""../../test_img/15.png\"" width=150 style=\""vertical-align:middle\"">---朋友"",""<img src=\""../../test_img/22.png\"" width=150 style=\""vertical-align:middle\"">---自我""]","","",""
"","","","","","html-keyboard-response","85","328652","0.0-9.0-0.0-0.0-0.0-1.12","null","<span style='color:GreenYellow; font-size: 70px;'>正确! </span>","null","","","","","","","","","","","","","","","","","","","","","","","","","feedback_test","",""
"","","","","","psychophysics","86","330063","0.0-9.0-0.0-0.0-0.0-0.13","406","","arrowleft","","","","","","","","","","","","","key","arrowleft","16.66746987951765","768","428","arrowright","false","../../test_img/22.png","生人","matching_task","自我","[""<img src=\""../../test_img/26.png\"" width=150 style=\""vertical-align:middle\"">---生人"",""<img src=\""../../test_img/15.png\"" width=150 style=\""vertical-align:middle\"">---朋友"",""<img src=\""../../test_img/22.png\"" width=150 style=\""vertical-align:middle\"">---自我""]","","",""
"","","","","","html-keyboard-response","87","330568","0.0-9.0-0.0-0.0-0.0-1.13","null","<span style='color:red; font-size: 70px;'>错误! </span>","null","","","","","","","","","","","","","","","","","","","","","","","","","feedback_test","",""
"","","","","","psychophysics","88","331972","0.0-9.0-0.0-0.0-0.0-0.14","399","","arrowleft","","","","","","","","","","","","","key","arrowleft","16.667469879518354","768","428","arrowright","false","../../test_img/26.png","自我","matching_task","生人","[""<img src=\""../../test_img/26.png\"" width=150 style=\""vertical-align:middle\"">---生人"",""<img src=\""../../test_img/15.png\"" width=150 style=\""vertical-align:middle\"">---朋友"",""<img src=\""../../test_img/22.png\"" width=150 style=\""vertical-align:middle\"">---自我""]","","",""
"","","","","","html-keyboard-response","89","332476","0.0-9.0-0.0-0.0-0.0-1.14","null","<span style='color:red; font-size: 70px;'>错误! </span>","null","","","","","","","","","","","","","","","","","","","","","","","","","feedback_test","",""
"","","","","","psychophysics","90","334869","0.0-9.0-0.0-0.0-0.0-0.15","1381","","arrowleft","","","","","","","","","","","","","key","arrowleft","16.66619718309843","768","428","arrowleft","true","../../test_img/22.png","自我","matching_task","自我","[""<img src=\""../../test_img/26.png\"" width=150 style=\""vertical-align:middle\"">---生人"",""<img src=\""../../test_img/15.png\"" width=150 style=\""vertical-align:middle\"">---朋友"",""<img src=\""../../test_img/22.png\"" width=150 style=\""vertical-align:middle\"">---自我""]","","",""
"","","","","","html-keyboard-response","91","335373","0.0-9.0-0.0-0.0-0.0-1.15","null","<span style='color:GreenYellow; font-size: 70px;'>正确! </span>","null","","","","","","","","","","","","","","","","","","","","","","","","","feedback_test","",""
"","","","","","psychophysics","92","337090","0.0-9.0-0.0-0.0-0.0-0.16","707","","arrowright","","","","","","","","","","","","","key","arrowright","16.665686274510033","768","428","arrowright","true","../../test_img/26.png","朋友","matching_task","生人","[""<img src=\""../../test_img/26.png\"" width=150 style=\""vertical-align:middle\"">---生人"",""<img src=\""../../test_img/15.png\"" width=150 style=\""vertical-align:middle\"">---朋友"",""<img src=\""../../test_img/22.png\"" width=150 style=\""vertical-align:middle\"">---自我""]","","",""
"","","","","","html-keyboard-response","93","337600","0.0-9.0-0.0-0.0-0.0-1.16","null","<span style='color:GreenYellow; font-size: 70px;'>正确! </span>","null","","","","","","","","","","","","","","","","","","","","","","","","","feedback_test","",""
"","","","","","psychophysics","94","339346","0.0-9.0-0.0-0.0-0.0-0.17","740","","arrowleft","","","","","","","","","","","","","key","arrowleft","16.666019417475503","768","428","arrowleft","true","../../test_img/22.png","自我","matching_task","自我","[""<img src=\""../../test_img/26.png\"" width=150 style=\""vertical-align:middle\"">---生人"",""<img src=\""../../test_img/15.png\"" width=150 style=\""vertical-align:middle\"">---朋友"",""<img src=\""../../test_img/22.png\"" width=150 style=\""vertical-align:middle\"">---自我""]","","",""
"","","","","","html-keyboard-response","95","339852","0.0-9.0-0.0-0.0-0.0-1.17","null","<span style='color:GreenYellow; font-size: 70px;'>正确! </span>","null","","","","","","","","","","","","","","","","","","","","","","","","","feedback_test","",""
"","","","","","psychophysics","96","341549","0.0-9.0-0.0-0.0-0.0-0.18","693","","arrowright","","","","","","","","","","","","","key","arrowright","16.665999999999766","768","428","arrowright","true","../../test_img/15.png","自我","matching_task","朋友","[""<img src=\""../../test_img/26.png\"" width=150 style=\""vertical-align:middle\"">---生人"",""<img src=\""../../test_img/15.png\"" width=150 style=\""vertical-align:middle\"">---朋友"",""<img src=\""../../test_img/22.png\"" width=150 style=\""vertical-align:middle\"">---自我""]","","",""
"","","","","","html-keyboard-response","97","342065","0.0-9.0-0.0-0.0-0.0-1.18","null","<span style='color:GreenYellow; font-size: 70px;'>正确! </span>","null","","","","","","","","","","","","","","","","","","","","","","","","","feedback_test","",""
"","","","","","psychophysics","98","343808","0.0-9.0-0.0-0.0-0.0-0.19","735","","arrowleft","","","","","","","","","","","","","key","arrowleft","16.6663461538466","768","428","arrowleft","true","../../test_img/15.png","朋友","matching_task","朋友","[""<img src=\""../../test_img/26.png\"" width=150 style=\""vertical-align:middle\"">---生人"",""<img src=\""../../test_img/15.png\"" width=150 style=\""vertical-align:middle\"">---朋友"",""<img src=\""../../test_img/22.png\"" width=150 style=\""vertical-align:middle\"">---自我""]","","",""
"","","","","","html-keyboard-response","99","344318","0.0-9.0-0.0-0.0-0.0-1.19","null","<span style='color:GreenYellow; font-size: 70px;'>正确! </span>","null","","","","","","","","","","","","","","","","","","","","","","","","","feedback_test","",""
"","","","","","psychophysics","100","345994","0.0-9.0-0.0-0.0-0.0-0.20","672","","arrowright","","","","","","","","","","","","","key","arrowright","16.667999999999882","768","428","arrowright","true","../../test_img/15.png","生人","matching_task","朋友","[""<img src=\""../../test_img/26.png\"" width=150 style=\""vertical-align:middle\"">---生人"",""<img src=\""../../test_img/15.png\"" width=150 style=\""vertical-align:middle\"">---朋友"",""<img src=\""../../test_img/22.png\"" width=150 style=\""vertical-align:middle\"">---自我""]","","",""
"","","","","","html-keyboard-response","101","346497","0.0-9.0-0.0-0.0-0.0-1.20","null","<span style='color:GreenYellow; font-size: 70px;'>正确! </span>","null","","","","","","","","","","","","","","","","","","","","","","","","","feedback_test","",""
"","","","","","psychophysics","102","348364","0.0-9.0-0.0-0.0-0.0-0.21","861","","arrowright","","","","","","","","","","","","","key","arrowright","16.663963963963546","768","428","arrowright","true","../../test_img/22.png","朋友","matching_task","自我","[""<img src=\""../../test_img/26.png\"" width=150 style=\""vertical-align:middle\"">---生人"",""<img src=\""../../test_img/15.png\"" width=150 style=\""vertical-align:middle\"">---朋友"",""<img src=\""../../test_img/22.png\"" width=150 style=\""vertical-align:middle\"">---自我""]","","",""
"","","","","","html-keyboard-response","103","348872","0.0-9.0-0.0-0.0-0.0-1.21","null","<span style='color:GreenYellow; font-size: 70px;'>正确! </span>","null","","","","","","","","","","","","","","","","","","","","","","","","","feedback_test","",""
"","","","","","psychophysics","104","350617","0.0-9.0-0.0-0.0-0.0-0.22","737","","arrowleft","","","","","","","","","","","","","key","arrowleft","16.666019417475503","768","428","arrowleft","true","../../test_img/15.png","朋友","matching_task","朋友","[""<img src=\""../../test_img/26.png\"" width=150 style=\""vertical-align:middle\"">---生人"",""<img src=\""../../test_img/15.png\"" width=150 style=\""vertical-align:middle\"">---朋友"",""<img src=\""../../test_img/22.png\"" width=150 style=\""vertical-align:middle\"">---自我""]","","",""
"","","","","","html-keyboard-response","105","351127","0.0-9.0-0.0-0.0-0.0-1.22","null","<span style='color:GreenYellow; font-size: 70px;'>正确! </span>","null","","","","","","","","","","","","","","","","","","","","","","","","","feedback_test","",""
"","","","","","psychophysics","106","352829","0.0-9.0-0.0-0.0-0.0-0.23","693","","arrowleft","","","","","","","","","","","","","key","arrowleft","16.664356435643334","768","428","arrowleft","true","../../test_img/26.png","生人","matching_task","生人","[""<img src=\""../../test_img/26.png\"" width=150 style=\""vertical-align:middle\"">---生人"",""<img src=\""../../test_img/15.png\"" width=150 style=\""vertical-align:middle\"">---朋友"",""<img src=\""../../test_img/22.png\"" width=150 style=\""vertical-align:middle\"">---自我""]","","",""
"","","","","","html-keyboard-response","107","353333","0.0-9.0-0.0-0.0-0.0-1.23","null","<span style='color:GreenYellow; font-size: 70px;'>正确! </span>","null","","","","","","","","","","","","","","","","","","","","","","","","","feedback_test","",""
"","","","","","psychophysics","108","355102","0.0-9.0-0.0-0.0-0.0-0.24","759","","arrowright","","","","","","","","","","","","","key","arrowright","16.667619047618825","768","428","arrowright","true","../../test_img/22.png","朋友","matching_task","自我","[""<img src=\""../../test_img/26.png\"" width=150 style=\""vertical-align:middle\"">---生人"",""<img src=\""../../test_img/15.png\"" width=150 style=\""vertical-align:middle\"">---朋友"",""<img src=\""../../test_img/22.png\"" width=150 style=\""vertical-align:middle\"">---自我""]","","",""
"","","","","","html-keyboard-response","109","355613","0.0-9.0-0.0-0.0-0.0-1.24","null","<span style='color:GreenYellow; font-size: 70px;'>正确! </span>","null","","","","","","","","","","","","","","","","","","","","","","","","","feedback_test","",""
"","","","","","psychophysics","110","357456","0.0-9.0-0.0-0.0-0.0-0.25","834","","arrowright","","","","","","","","","","","","","key","arrowright","16.66636363636353","768","428","arrowright","true","../../test_img/26.png","朋友","matching_task","生人","[""<img src=\""../../test_img/26.png\"" width=150 style=\""vertical-align:middle\"">---生人"",""<img src=\""../../test_img/15.png\"" width=150 style=\""vertical-align:middle\"">---朋友"",""<img src=\""../../test_img/22.png\"" width=150 style=\""vertical-align:middle\"">---自我""]","","",""
"","","","","","html-keyboard-response","111","357958","0.0-9.0-0.0-0.0-0.0-1.25","null","<span style='color:GreenYellow; font-size: 70px;'>正确! </span>","null","","","","","","","","","","","","","","","","","","","","","","","","","feedback_test","",""
"","","","","","psychophysics","112","359688","0.0-9.0-0.0-0.0-0.0-0.26","723","","arrowleft","","","","","","","","","","","","","key","arrowleft","16.66568627450946","768","428","arrowleft","true","../../test_img/22.png","自我","matching_task","自我","[""<img src=\""../../test_img/26.png\"" width=150 style=\""vertical-align:middle\"">---生人"",""<img src=\""../../test_img/15.png\"" width=150 style=\""vertical-align:middle\"">---朋友"",""<img src=\""../../test_img/22.png\"" width=150 style=\""vertical-align:middle\"">---自我""]","","",""
"","","","","","html-keyboard-response","113","360194","0.0-9.0-0.0-0.0-0.0-1.26","null","<span style='color:GreenYellow; font-size: 70px;'>正确! </span>","null","","","","","","","","","","","","","","","","","","","","","","","","","feedback_test","",""
"","","","","","psychophysics","114","362144","0.0-9.0-0.0-0.0-0.0-0.27","939","","arrowright","","","","","","","","","","","","","key","arrowright","16.664655172414093","768","428","arrowright","true","../../test_img/26.png","自我","matching_task","生人","[""<img src=\""../../test_img/26.png\"" width=150 style=\""vertical-align:middle\"">---生人"",""<img src=\""../../test_img/15.png\"" width=150 style=\""vertical-align:middle\"">---朋友"",""<img src=\""../../test_img/22.png\"" width=150 style=\""vertical-align:middle\"">---自我""]","","",""
"","","","","","html-keyboard-response","115","362650","0.0-9.0-0.0-0.0-0.0-1.27","null","<span style='color:GreenYellow; font-size: 70px;'>正确! </span>","null","","","","","","","","","","","","","","","","","","","","","","","","","feedback_test","",""
"","","","","","psychophysics","116","364479","0.0-9.0-0.0-0.0-0.0-0.28","823","","arrowright","","","","","","","","","","","","","key","arrowright","16.667592592592378","768","428","arrowright","true","../../test_img/15.png","自我","matching_task","朋友","[""<img src=\""../../test_img/26.png\"" width=150 style=\""vertical-align:middle\"">---生人"",""<img src=\""../../test_img/15.png\"" width=150 style=\""vertical-align:middle\"">---朋友"",""<img src=\""../../test_img/22.png\"" width=150 style=\""vertical-align:middle\"">---自我""]","","",""
"","","","","","html-keyboard-response","117","364993","0.0-9.0-0.0-0.0-0.0-1.28","null","<span style='color:GreenYellow; font-size: 70px;'>正确! </span>","null","","","","","","","","","","","","","","","","","","","","","","","","","feedback_test","",""
"","","","","","psychophysics","118","366804","0.0-9.0-0.0-0.0-0.0-0.29","801","","arrowright","","","","","","","","","","","","","key","arrowright","16.66822429906542","768","428","arrowright","true","../../test_img/22.png","生人","matching_task","自我","[""<img src=\""../../test_img/26.png\"" width=150 style=\""vertical-align:middle\"">---生人"",""<img src=\""../../test_img/15.png\"" width=150 style=\""vertical-align:middle\"">---朋友"",""<img src=\""../../test_img/22.png\"" width=150 style=\""vertical-align:middle\"">---自我""]","","",""
"","","","","","html-keyboard-response","119","367310","0.0-9.0-0.0-0.0-0.0-1.29","null","<span style='color:GreenYellow; font-size: 70px;'>正确! </span>","null","","","","","","","","","","","","","","","","","","","","","","","","","feedback_test","",""
"","","","","","psychophysics","120","369072","0.0-9.0-0.0-0.0-0.0-0.30","751","","arrowleft","","","","","","","","","","","","","key","arrowleft","16.663809523809636","768","428","arrowleft","true","../../test_img/22.png","自我","matching_task","自我","[""<img src=\""../../test_img/26.png\"" width=150 style=\""vertical-align:middle\"">---生人"",""<img src=\""../../test_img/15.png\"" width=150 style=\""vertical-align:middle\"">---朋友"",""<img src=\""../../test_img/22.png\"" width=150 style=\""vertical-align:middle\"">---自我""]","","",""
"","","","","","html-keyboard-response","121","369580","0.0-9.0-0.0-0.0-0.0-1.30","null","<span style='color:GreenYellow; font-size: 70px;'>正确! </span>","null","","","","","","","","","","","","","","","","","","","","","","","","","feedback_test","",""
"","","","","","psychophysics","122","371270","0.0-9.0-0.0-0.0-0.0-0.31","678","","arrowleft","","","","","","","","","","","","","key","arrowleft","16.667000000000115","768","428","arrowleft","true","../../test_img/15.png","朋友","matching_task","朋友","[""<img src=\""../../test_img/26.png\"" width=150 style=\""vertical-align:middle\"">---生人"",""<img src=\""../../test_img/15.png\"" width=150 style=\""vertical-align:middle\"">---朋友"",""<img src=\""../../test_img/22.png\"" width=150 style=\""vertical-align:middle\"">---自我""]","","",""
"","","","","","html-keyboard-response","123","371775","0.0-9.0-0.0-0.0-0.0-1.31","null","<span style='color:GreenYellow; font-size: 70px;'>正确! </span>","null","","","","","","","","","","","","","","","","","","","","","","","","","feedback_test","",""
"","","","","","psychophysics","124","373444","0.0-9.0-0.0-0.0-0.0-0.32","656","","arrowleft","","","","","","","","","","","","","key","arrowleft","16.664646464646346","768","428","arrowleft","true","../../test_img/26.png","生人","matching_task","生人","[""<img src=\""../../test_img/26.png\"" width=150 style=\""vertical-align:middle\"">---生人"",""<img src=\""../../test_img/15.png\"" width=150 style=\""vertical-align:middle\"">---朋友"",""<img src=\""../../test_img/22.png\"" width=150 style=\""vertical-align:middle\"">---自我""]","","",""
"","","","","","html-keyboard-response","125","373952","0.0-9.0-0.0-0.0-0.0-1.32","null","<span style='color:GreenYellow; font-size: 70px;'>正确! </span>","null","","","","","","","","","","","","","","","","","","","","","","","","","feedback_test","",""
"","","","","","psychophysics","126","375508","0.0-9.0-0.0-0.0-0.0-0.33","554","","arrowright","","","","","","","","","","","","","key","arrowright","16.66630434782596","768","428","arrowleft","false","../../test_img/15.png","朋友","matching_task","朋友","[""<img src=\""../../test_img/26.png\"" width=150 style=\""vertical-align:middle\"">---生人"",""<img src=\""../../test_img/15.png\"" width=150 style=\""vertical-align:middle\"">---朋友"",""<img src=\""../../test_img/22.png\"" width=150 style=\""vertical-align:middle\"">---自我""]","","",""
"","","","","","html-keyboard-response","127","376017","0.0-9.0-0.0-0.0-0.0-1.33","null","<span style='color:red; font-size: 70px;'>错误! </span>","null","","","","","","","","","","","","","","","","","","","","","","","","","feedback_test","",""
"","","","","","psychophysics","128","377685","0.0-9.0-0.0-0.0-0.0-0.34","663","","arrowleft","","","","","","","","","","","","","key","arrowleft","16.6653061224491","768","428","arrowleft","true","../../test_img/26.png","生人","matching_task","生人","[""<img src=\""../../test_img/26.png\"" width=150 style=\""vertical-align:middle\"">---生人"",""<img src=\""../../test_img/15.png\"" width=150 style=\""vertical-align:middle\"">---朋友"",""<img src=\""../../test_img/22.png\"" width=150 style=\""vertical-align:middle\"">---自我""]","","",""
"","","","","","html-keyboard-response","129","378189","0.0-9.0-0.0-0.0-0.0-1.34","null","<span style='color:GreenYellow; font-size: 70px;'>正确! </span>","null","","","","","","","","","","","","","","","","","","","","","","","","","feedback_test","",""
"","","","","","psychophysics","130","379670","0.0-9.0-0.0-0.0-0.0-0.35","471","","arrowleft","","","","","","","","","","","","","key","arrowleft","16.666666666666668","768","428","arrowright","false","../../test_img/15.png","生人","matching_task","朋友","[""<img src=\""../../test_img/26.png\"" width=150 style=\""vertical-align:middle\"">---生人"",""<img src=\""../../test_img/15.png\"" width=150 style=\""vertical-align:middle\"">---朋友"",""<img src=\""../../test_img/22.png\"" width=150 style=\""vertical-align:middle\"">---自我""]","","",""
"","","","","","html-keyboard-response","131","380184","0.0-9.0-0.0-0.0-0.0-1.35","null","<span style='color:red; font-size: 70px;'>错误! </span>","null","","","","","","","","","","","","","","","","","","","","","","","","","feedback_test","",""
"","","","","","psychophysics","132","382687","0.0-9.0-0.0-0.0-0.0-0.36","null","","null","","","","","","","","","","","","","key","null","16.66621621621606","768","428","arrowright","false","../../test_img/15.png","自我","matching_task","朋友","[""<img src=\""../../test_img/26.png\"" width=150 style=\""vertical-align:middle\"">---生人"",""<img src=\""../../test_img/15.png\"" width=150 style=\""vertical-align:middle\"">---朋友"",""<img src=\""../../test_img/22.png\"" width=150 style=\""vertical-align:middle\"">---自我""]","","",""
"","","","","","html-keyboard-response","133","383200","0.0-9.0-0.0-0.0-0.0-1.36","null","<span class='add_' style='color:yellow; font-size: 70px;'> 太慢! </span>","null","","","","","","","","","","","","","","","","","","","","","","","","","feedback_test","",""
"","","","","","psychophysics","134","384987","0.0-9.0-0.0-0.0-0.0-0.37","783","","arrowleft","","","","","","","","","","","","","key","arrowleft","16.664761904761793","768","428","arrowleft","true","../../test_img/22.png","自我","matching_task","自我","[""<img src=\""../../test_img/26.png\"" width=150 style=\""vertical-align:middle\"">---生人"",""<img src=\""../../test_img/15.png\"" width=150 style=\""vertical-align:middle\"">---朋友"",""<img src=\""../../test_img/22.png\"" width=150 style=\""vertical-align:middle\"">---自我""]","","",""
"","","","","","html-keyboard-response","135","385490","0.0-9.0-0.0-0.0-0.0-1.37","null","<span style='color:GreenYellow; font-size: 70px;'>正确! </span>","null","","","","","","","","","","","","","","","","","","","","","","","","","feedback_test","",""
"","","","","","psychophysics","136","387237","0.0-9.0-0.0-0.0-0.0-0.38","741","","arrowright","","","","","","","","","","","","","key","arrowright","16.665384615384728","768","428","arrowright","true","../../test_img/26.png","朋友","matching_task","生人","[""<img src=\""../../test_img/26.png\"" width=150 style=\""vertical-align:middle\"">---生人"",""<img src=\""../../test_img/15.png\"" width=150 style=\""vertical-align:middle\"">---朋友"",""<img src=\""../../test_img/22.png\"" width=150 style=\""vertical-align:middle\"">---自我""]","","",""
"","","","","","html-keyboard-response","137","387742","0.0-9.0-0.0-0.0-0.0-1.38","null","<span style='color:GreenYellow; font-size: 70px;'>正确! </span>","null","","","","","","","","","","","","","","","","","","","","","","","","","feedback_test","",""
"","","","","","psychophysics","138","389562","0.0-9.0-0.0-0.0-0.0-0.39","809","","arrowright","","","","","","","","","","","","","key","arrowright","16.663888888888998","768","428","arrowright","true","../../test_img/22.png","生人","matching_task","自我","[""<img src=\""../../test_img/26.png\"" width=150 style=\""vertical-align:middle\"">---生人"",""<img src=\""../../test_img/15.png\"" width=150 style=\""vertical-align:middle\"">---朋友"",""<img src=\""../../test_img/22.png\"" width=150 style=\""vertical-align:middle\"">---自我""]","","",""
"","","","","","html-keyboard-response","139","390073","0.0-9.0-0.0-0.0-0.0-1.39","null","<span style='color:GreenYellow; font-size: 70px;'>正确! </span>","null","","","","","","","","","","","","","","","","","","","","","","","","","feedback_test","",""
"","","","","","psychophysics","140","391774","0.0-9.0-0.0-0.0-0.0-0.40","691","","arrowleft","","","","","","","","","","","","","key","arrowleft","16.66534653465358","768","428","arrowleft","true","../../test_img/15.png","朋友","matching_task","朋友","[""<img src=\""../../test_img/26.png\"" width=150 style=\""vertical-align:middle\"">---生人"",""<img src=\""../../test_img/15.png\"" width=150 style=\""vertical-align:middle\"">---朋友"",""<img src=\""../../test_img/22.png\"" width=150 style=\""vertical-align:middle\"">---自我""]","","",""
"","","","","","html-keyboard-response","141","392284","0.0-9.0-0.0-0.0-0.0-1.40","null","<span style='color:GreenYellow; font-size: 70px;'>正确! </span>","null","","","","","","","","","","","","","","","","","","","","","","","","","feedback_test","",""
"","","","","","psychophysics","142","394136","0.0-9.0-0.0-0.0-0.0-0.41","849","","arrowright","","","","","","","","","","","","","key","arrowright","16.66636363636353","768","428","arrowright","true","../../test_img/15.png","生人","matching_task","朋友","[""<img src=\""../../test_img/26.png\"" width=150 style=\""vertical-align:middle\"">---生人"",""<img src=\""../../test_img/15.png\"" width=150 style=\""vertical-align:middle\"">---朋友"",""<img src=\""../../test_img/22.png\"" width=150 style=\""vertical-align:middle\"">---自我""]","","",""
"","","","","","html-keyboard-response","143","394643","0.0-9.0-0.0-0.0-0.0-1.41","null","<span style='color:GreenYellow; font-size: 70px;'>正确! </span>","null","","","","","","","","","","","","","","","","","","","","","","","","","feedback_test","",""
"","","","","","psychophysics","144","396187","0.0-9.0-0.0-0.0-0.0-0.42","531","","arrowright","","","","","","","","","","","","","key","arrowright","16.66630434782596","768","428","arrowleft","false","../../test_img/26.png","生人","matching_task","生人","[""<img src=\""../../test_img/26.png\"" width=150 style=\""vertical-align:middle\"">---生人"",""<img src=\""../../test_img/15.png\"" width=150 style=\""vertical-align:middle\"">---朋友"",""<img src=\""../../test_img/22.png\"" width=150 style=\""vertical-align:middle\"">---自我""]","","",""
"","","","","","html-keyboard-response","145","396694","0.0-9.0-0.0-0.0-0.0-1.42","null","<span style='color:red; font-size: 70px;'>错误! </span>","null","","","","","","","","","","","","","","","","","","","","","","","","","feedback_test","",""
"","","","","","psychophysics","146","398411","0.0-9.0-0.0-0.0-0.0-0.43","709","","arrowleft","","","","","","","","","","","","","key","arrowleft","16.666666666666668","768","428","arrowright","false","../../test_img/26.png","自我","matching_task","生人","[""<img src=\""../../test_img/26.png\"" width=150 style=\""vertical-align:middle\"">---生人"",""<img src=\""../../test_img/15.png\"" width=150 style=\""vertical-align:middle\"">---朋友"",""<img src=\""../../test_img/22.png\"" width=150 style=\""vertical-align:middle\"">---自我""]","","",""
"","","","","","html-keyboard-response","147","398917","0.0-9.0-0.0-0.0-0.0-1.43","null","<span style='color:red; font-size: 70px;'>错误! </span>","null","","","","","","","","","","","","","","","","","","","","","","","","","feedback_test","",""
"","","","","","psychophysics","148","400467","0.0-9.0-0.0-0.0-0.0-0.44","547","","arrowleft","","","","","","","","","","","","","key","arrowleft","16.669230769231024","768","428","arrowleft","true","../../test_img/15.png","朋友","matching_task","朋友","[""<img src=\""../../test_img/26.png\"" width=150 style=\""vertical-align:middle\"">---生人"",""<img src=\""../../test_img/15.png\"" width=150 style=\""vertical-align:middle\"">---朋友"",""<img src=\""../../test_img/22.png\"" width=150 style=\""vertical-align:middle\"">---自我""]","","",""
"","","","","","html-keyboard-response","149","400981","0.0-9.0-0.0-0.0-0.0-1.44","null","<span style='color:GreenYellow; font-size: 70px;'>正确! </span>","null","","","","","","","","","","","","","","","","","","","","","","","","","feedback_test","",""
"","","","","","psychophysics","150","402660","0.0-9.0-0.0-0.0-0.0-0.45","673","","arrowright","","","","","","","","","","","","","key","arrowright","16.667000000000115","768","428","arrowright","true","../../test_img/22.png","朋友","matching_task","自我","[""<img src=\""../../test_img/26.png\"" width=150 style=\""vertical-align:middle\"">---生人"",""<img src=\""../../test_img/15.png\"" width=150 style=\""vertical-align:middle\"">---朋友"",""<img src=\""../../test_img/22.png\"" width=150 style=\""vertical-align:middle\"">---自我""]","","",""
"","","","","","html-keyboard-response","151","403176","0.0-9.0-0.0-0.0-0.0-1.45","null","<span style='color:GreenYellow; font-size: 70px;'>正确! </span>","null","","","","","","","","","","","","","","","","","","","","","","","","","feedback_test","",""
"","","","","","psychophysics","152","404817","0.0-9.0-0.0-0.0-0.0-0.46","635","","arrowleft","","","","","","","","","","","","","key","arrowleft","16.66701030927787","768","428","arrowleft","true","../../test_img/22.png","自我","matching_task","自我","[""<img src=\""../../test_img/26.png\"" width=150 style=\""vertical-align:middle\"">---生人"",""<img src=\""../../test_img/15.png\"" width=150 style=\""vertical-align:middle\"">---朋友"",""<img src=\""../../test_img/22.png\"" width=150 style=\""vertical-align:middle\"">---自我""]","","",""
"","","","","","html-keyboard-response","153","405320","0.0-9.0-0.0-0.0-0.0-1.46","null","<span style='color:GreenYellow; font-size: 70px;'>正确! </span>","null","","","","","","","","","","","","","","","","","","","","","","","","","feedback_test","",""
"","","","","","psychophysics","154","406887","0.0-9.0-0.0-0.0-0.0-0.47","561","","arrowleft","","","","","","","","","","","","","key","arrowleft","16.669892473118153","768","428","arrowleft","true","../../test_img/26.png","生人","matching_task","生人","[""<img src=\""../../test_img/26.png\"" width=150 style=\""vertical-align:middle\"">---生人"",""<img src=\""../../test_img/15.png\"" width=150 style=\""vertical-align:middle\"">---朋友"",""<img src=\""../../test_img/22.png\"" width=150 style=\""vertical-align:middle\"">---自我""]","","",""
"","","","","","html-keyboard-response","155","407393","0.0-9.0-0.0-0.0-0.0-1.47","null","<span style='color:GreenYellow; font-size: 70px;'>正确! </span>","null","","","","","","","","","","","","","","","","","","","","","","","","","feedback_test","",""
"","","","","","psychophysics","156","409037","0.0-9.0-0.0-0.0-0.0-0.48","634","","arrowright","","","","","","","","","","","","","key","arrowright","16.664285714285477","768","428","arrowright","true","../../test_img/22.png","生人","matching_task","自我","[""<img src=\""../../test_img/26.png\"" width=150 style=\""vertical-align:middle\"">---生人"",""<img src=\""../../test_img/15.png\"" width=150 style=\""vertical-align:middle\"">---朋友"",""<img src=\""../../test_img/22.png\"" width=150 style=\""vertical-align:middle\"">---自我""]","","",""
"","","","","","html-keyboard-response","157","409542","0.0-9.0-0.0-0.0-0.0-1.48","null","<span style='color:GreenYellow; font-size: 70px;'>正确! </span>","null","","","","","","","","","","","","","","","","","","","","","","","","","feedback_test","",""
"","","","","","psychophysics","158","411533","0.0-9.0-0.0-0.0-0.0-0.49","980","","arrowleft","","","","","","","","","","","","","key","arrowleft","16.666101694915056","768","428","arrowleft","true","../../test_img/22.png","自我","matching_task","自我","[""<img src=\""../../test_img/26.png\"" width=150 style=\""vertical-align:middle\"">---生人"",""<img src=\""../../test_img/15.png\"" width=150 style=\""vertical-align:middle\"">---朋友"",""<img src=\""../../test_img/22.png\"" width=150 style=\""vertical-align:middle\"">---自我""]","","",""
"","","","","","html-keyboard-response","159","412047","0.0-9.0-0.0-0.0-0.0-1.49","null","<span style='color:GreenYellow; font-size: 70px;'>正确! </span>","null","","","","","","","","","","","","","","","","","","","","","","","","","feedback_test","",""
"","","","","","psychophysics","160","413717","0.0-9.0-0.0-0.0-0.0-0.50","664","","arrowright","","","","","","","","","","","","","key","arrowright","16.665656565656214","768","428","arrowright","true","../../test_img/15.png","生人","matching_task","朋友","[""<img src=\""../../test_img/26.png\"" width=150 style=\""vertical-align:middle\"">---生人"",""<img src=\""../../test_img/15.png\"" width=150 style=\""vertical-align:middle\"">---朋友"",""<img src=\""../../test_img/22.png\"" width=150 style=\""vertical-align:middle\"">---自我""]","","",""
"","","","","","html-keyboard-response","161","414225","0.0-9.0-0.0-0.0-0.0-1.50","null","<span style='color:GreenYellow; font-size: 70px;'>正确! </span>","null","","","","","","","","","","","","","","","","","","","","","","","","","feedback_test","",""
"","","","","","psychophysics","162","416036","0.0-9.0-0.0-0.0-0.0-0.51","804","","arrowleft","","","","","","","","","","","","","key","arrowleft","16.664814814815244","768","428","arrowright","false","../../test_img/15.png","自我","matching_task","朋友","[""<img src=\""../../test_img/26.png\"" width=150 style=\""vertical-align:middle\"">---生人"",""<img src=\""../../test_img/15.png\"" width=150 style=\""vertical-align:middle\"">---朋友"",""<img src=\""../../test_img/22.png\"" width=150 style=\""vertical-align:middle\"">---自我""]","","",""
"","","","","","html-keyboard-response","163","416539","0.0-9.0-0.0-0.0-0.0-1.51","null","<span style='color:red; font-size: 70px;'>错误! </span>","null","","","","","","","","","","","","","","","","","","","","","","","","","feedback_test","",""
"","","","","","psychophysics","164","418097","0.0-9.0-0.0-0.0-0.0-0.52","547","","arrowleft","","","","","","","","","","","","","key","arrowleft","16.665217391304473","768","428","arrowleft","true","../../test_img/15.png","朋友","matching_task","朋友","[""<img src=\""../../test_img/26.png\"" width=150 style=\""vertical-align:middle\"">---生人"",""<img src=\""../../test_img/15.png\"" width=150 style=\""vertical-align:middle\"">---朋友"",""<img src=\""../../test_img/22.png\"" width=150 style=\""vertical-align:middle\"">---自我""]","","",""
"","","","","","html-keyboard-response","165","418612","0.0-9.0-0.0-0.0-0.0-1.52","null","<span style='color:GreenYellow; font-size: 70px;'>正确! </span>","null","","","","","","","","","","","","","","","","","","","","","","","","","feedback_test","",""
"","","","","","psychophysics","166","420369","0.0-9.0-0.0-0.0-0.0-0.53","750","","arrowleft","","","","","","","","","","","","","key","arrowleft","16.667307692307915","768","428","arrowleft","true","../../test_img/22.png","自我","matching_task","自我","[""<img src=\""../../test_img/26.png\"" width=150 style=\""vertical-align:middle\"">---生人"",""<img src=\""../../test_img/15.png\"" width=150 style=\""vertical-align:middle\"">---朋友"",""<img src=\""../../test_img/22.png\"" width=150 style=\""vertical-align:middle\"">---自我""]","","",""
"","","","","","html-keyboard-response","167","420871","0.0-9.0-0.0-0.0-0.0-1.53","null","<span style='color:GreenYellow; font-size: 70px;'>正确! </span>","null","","","","","","","","","","","","","","","","","","","","","","","","","feedback_test","",""
"","","","","","psychophysics","168","422413","0.0-9.0-0.0-0.0-0.0-0.54","527","","arrowright","","","","","","","","","","","","","key","arrowright","16.664835164835164","768","428","arrowright","true","../../test_img/26.png","朋友","matching_task","生人","[""<img src=\""../../test_img/26.png\"" width=150 style=\""vertical-align:middle\"">---生人"",""<img src=\""../../test_img/15.png\"" width=150 style=\""vertical-align:middle\"">---朋友"",""<img src=\""../../test_img/22.png\"" width=150 style=\""vertical-align:middle\"">---自我""]","","",""
"","","","","","html-keyboard-response","169","422926","0.0-9.0-0.0-0.0-0.0-1.54","null","<span style='color:GreenYellow; font-size: 70px;'>正确! </span>","null","","","","","","","","","","","","","","","","","","","","","","","","","feedback_test","",""
"","","","","","psychophysics","170","424494","0.0-9.0-0.0-0.0-0.0-0.55","558","","arrowleft","","","","","","","","","","","","","key","arrowleft","16.666666666666668","768","428","arrowleft","true","../../test_img/26.png","生人","matching_task","生人","[""<img src=\""../../test_img/26.png\"" width=150 style=\""vertical-align:middle\"">---生人"",""<img src=\""../../test_img/15.png\"" width=150 style=\""vertical-align:middle\"">---朋友"",""<img src=\""../../test_img/22.png\"" width=150 style=\""vertical-align:middle\"">---自我""]","","",""
"","","","","","html-keyboard-response","171","425000","0.0-9.0-0.0-0.0-0.0-1.55","null","<span style='color:GreenYellow; font-size: 70px;'>正确! </span>","null","","","","","","","","","","","","","","","","","","","","","","","","","feedback_test","",""
"","","","","","psychophysics","172","426650","0.0-9.0-0.0-0.0-0.0-0.56","646","","arrowright","","","","","","","","","","","","","key","arrowright","16.668367346938776","768","428","arrowright","true","../../test_img/26.png","自我","matching_task","生人","[""<img src=\""../../test_img/26.png\"" width=150 style=\""vertical-align:middle\"">---生人"",""<img src=\""../../test_img/15.png\"" width=150 style=\""vertical-align:middle\"">---朋友"",""<img src=\""../../test_img/22.png\"" width=150 style=\""vertical-align:middle\"">---自我""]","","",""
"","","","","","html-keyboard-response","173","427166","0.0-9.0-0.0-0.0-0.0-1.56","null","<span style='color:GreenYellow; font-size: 70px;'>正确! </span>","null","","","","","","","","","","","","","","","","","","","","","","","","","feedback_test","",""
"","","","","","psychophysics","174","428920","0.0-9.0-0.0-0.0-0.0-0.57","751","","arrowleft","","","","","","","","","","","","","key","arrowleft","16.666666666666668","768","428","arrowleft","true","../../test_img/26.png","生人","matching_task","生人","[""<img src=\""../../test_img/26.png\"" width=150 style=\""vertical-align:middle\"">---生人"",""<img src=\""../../test_img/15.png\"" width=150 style=\""vertical-align:middle\"">---朋友"",""<img src=\""../../test_img/22.png\"" width=150 style=\""vertical-align:middle\"">---自我""]","","",""
"","","","","","html-keyboard-response","175","429429","0.0-9.0-0.0-0.0-0.0-1.57","null","<span style='color:GreenYellow; font-size: 70px;'>正确! </span>","null","","","","","","","","","","","","","","","","","","","","","","","","","feedback_test","",""
"","","","","","psychophysics","176","431256","0.0-9.0-0.0-0.0-0.0-0.58","816","","arrowleft","","","","","","","","","","","","","key","arrowleft","16.666055045871346","768","428","arrowright","false","../../test_img/22.png","朋友","matching_task","自我","[""<img src=\""../../test_img/26.png\"" width=150 style=\""vertical-align:middle\"">---生人"",""<img src=\""../../test_img/15.png\"" width=150 style=\""vertical-align:middle\"">---朋友"",""<img src=\""../../test_img/22.png\"" width=150 style=\""vertical-align:middle\"">---自我""]","","",""
"","","","","","html-keyboard-response","177","431760","0.0-9.0-0.0-0.0-0.0-1.58","null","<span style='color:red; font-size: 70px;'>错误! </span>","null","","","","","","","","","","","","","","","","","","","","","","","","","feedback_test","",""
"","","","","","psychophysics","178","433583","0.0-9.0-0.0-0.0-0.0-0.59","814","","arrowleft","","","","","","","","","","","","","key","arrowleft","16.667592592592378","768","428","arrowleft","true","../../test_img/15.png","朋友","matching_task","朋友","[""<img src=\""../../test_img/26.png\"" width=150 style=\""vertical-align:middle\"">---生人"",""<img src=\""../../test_img/15.png\"" width=150 style=\""vertical-align:middle\"">---朋友"",""<img src=\""../../test_img/22.png\"" width=150 style=\""vertical-align:middle\"">---自我""]","","",""
"","","","","","html-keyboard-response","179","434093","0.0-9.0-0.0-0.0-0.0-1.59","null","<span style='color:GreenYellow; font-size: 70px;'>正确! </span>","null","","","","","","","","","","","","","","","","","","","","","","","","","feedback_test","",""
"","","","","","psychophysics","180","435974","0.0-9.0-0.0-0.0-0.0-0.60","875","","arrowleft","","","","","","","","","","","","","key","arrowleft","16.66607142857122","768","428","arrowleft","true","../../test_img/15.png","朋友","matching_task","朋友","[""<img src=\""../../test_img/26.png\"" width=150 style=\""vertical-align:middle\"">---生人"",""<img src=\""../../test_img/15.png\"" width=150 style=\""vertical-align:middle\"">---朋友"",""<img src=\""../../test_img/22.png\"" width=150 style=\""vertical-align:middle\"">---自我""]","","",""
"","","","","","html-keyboard-response","181","436480","0.0-9.0-0.0-0.0-0.0-1.60","null","<span style='color:GreenYellow; font-size: 70px;'>正确! </span>","null","","","","","","","","","","","","","","","","","","","","","","","","","feedback_test","",""
"","","","","","psychophysics","182","438177","0.0-9.0-0.0-0.0-0.0-0.61","692","","arrowleft","","","","","","","","","","","","","key","arrowleft","16.66600000000035","768","428","arrowleft","true","../../test_img/26.png","生人","matching_task","生人","[""<img src=\""../../test_img/26.png\"" width=150 style=\""vertical-align:middle\"">---生人"",""<img src=\""../../test_img/15.png\"" width=150 style=\""vertical-align:middle\"">---朋友"",""<img src=\""../../test_img/22.png\"" width=150 style=\""vertical-align:middle\"">---自我""]","","",""
"","","","","","html-keyboard-response","183","438683","0.0-9.0-0.0-0.0-0.0-1.61","null","<span style='color:GreenYellow; font-size: 70px;'>正确! </span>","null","","","","","","","","","","","","","","","","","","","","","","","","","feedback_test","",""
"","","","","","psychophysics","184","440225","0.0-9.0-0.0-0.0-0.0-0.62","541","","arrowright","","","","","","","","","","","","","key","arrowright","16.66652173913051","768","428","arrowright","true","../../test_img/26.png","自我","matching_task","生人","[""<img src=\""../../test_img/26.png\"" width=150 style=\""vertical-align:middle\"">---生人"",""<img src=\""../../test_img/15.png\"" width=150 style=\""vertical-align:middle\"">---朋友"",""<img src=\""../../test_img/22.png\"" width=150 style=\""vertical-align:middle\"">---自我""]","","",""
"","","","","","html-keyboard-response","185","440740","0.0-9.0-0.0-0.0-0.0-1.62","null","<span style='color:GreenYellow; font-size: 70px;'>正确! </span>","null","","","","","","","","","","","","","","","","","","","","","","","","","feedback_test","",""
"","","","","","psychophysics","186","442488","0.0-9.0-0.0-0.0-0.0-0.63","736","","arrowleft","","","","","","","","","","","","","key","arrowleft","16.66442307692285","768","428","arrowleft","true","../../test_img/22.png","自我","matching_task","自我","[""<img src=\""../../test_img/26.png\"" width=150 style=\""vertical-align:middle\"">---生人"",""<img src=\""../../test_img/15.png\"" width=150 style=\""vertical-align:middle\"">---朋友"",""<img src=\""../../test_img/22.png\"" width=150 style=\""vertical-align:middle\"">---自我""]","","",""
"","","","","","html-keyboard-response","187","442995","0.0-9.0-0.0-0.0-0.0-1.63","null","<span style='color:GreenYellow; font-size: 70px;'>正确! </span>","null","","","","","","","","","","","","","","","","","","","","","","","","","feedback_test","",""
"","","","","","psychophysics","188","444749","0.0-9.0-0.0-0.0-0.0-0.64","743","","arrowleft","","","","","","","","","","","","","key","arrowleft","16.665384615384166","768","428","arrowleft","true","../../test_img/15.png","朋友","matching_task","朋友","[""<img src=\""../../test_img/26.png\"" width=150 style=\""vertical-align:middle\"">---生人"",""<img src=\""../../test_img/15.png\"" width=150 style=\""vertical-align:middle\"">---朋友"",""<img src=\""../../test_img/22.png\"" width=150 style=\""vertical-align:middle\"">---自我""]","","",""
"","","","","","html-keyboard-response","189","445262","0.0-9.0-0.0-0.0-0.0-1.64","null","<span style='color:GreenYellow; font-size: 70px;'>正确! </span>","null","","","","","","","","","","","","","","","","","","","","","","","","","feedback_test","",""
"","","","","","psychophysics","190","446823","0.0-9.0-0.0-0.0-0.0-0.65","555","","arrowleft","","","","","","","","","","","","","key","arrowleft","16.665591397849713","768","428","arrowleft","true","../../test_img/26.png","生人","matching_task","生人","[""<img src=\""../../test_img/26.png\"" width=150 style=\""vertical-align:middle\"">---生人"",""<img src=\""../../test_img/15.png\"" width=150 style=\""vertical-align:middle\"">---朋友"",""<img src=\""../../test_img/22.png\"" width=150 style=\""vertical-align:middle\"">---自我""]","","",""
"","","","","","html-keyboard-response","191","447326","0.0-9.0-0.0-0.0-0.0-1.65","null","<span style='color:GreenYellow; font-size: 70px;'>正确! </span>","null","","","","","","","","","","","","","","","","","","","","","","","","","feedback_test","",""
"","","","","","psychophysics","192","449029","0.0-9.0-0.0-0.0-0.0-0.66","691","","arrowright","","","","","","","","","","","","","key","arrowright","16.666336633663253","768","428","arrowright","true","../../test_img/22.png","朋友","matching_task","自我","[""<img src=\""../../test_img/26.png\"" width=150 style=\""vertical-align:middle\"">---生人"",""<img src=\""../../test_img/15.png\"" width=150 style=\""vertical-align:middle\"">---朋友"",""<img src=\""../../test_img/22.png\"" width=150 style=\""vertical-align:middle\"">---自我""]","","",""
"","","","","","html-keyboard-response","193","449539","0.0-9.0-0.0-0.0-0.0-1.66","null","<span style='color:GreenYellow; font-size: 70px;'>正确! </span>","null","","","","","","","","","","","","","","","","","","","","","","","","","feedback_test","",""
"","","","","","psychophysics","194","451626","0.0-9.0-0.0-0.0-0.0-0.67","1075","","arrowright","","","","","","","","","","","","","key","arrowright","16.66532258064516","768","428","arrowright","true","../../test_img/15.png","生人","matching_task","朋友","[""<img src=\""../../test_img/26.png\"" width=150 style=\""vertical-align:middle\"">---生人"",""<img src=\""../../test_img/15.png\"" width=150 style=\""vertical-align:middle\"">---朋友"",""<img src=\""../../test_img/22.png\"" width=150 style=\""vertical-align:middle\"">---自我""]","","",""
"","","","","","html-keyboard-response","195","452135","0.0-9.0-0.0-0.0-0.0-1.67","null","<span style='color:GreenYellow; font-size: 70px;'>正确! </span>","null","","","","","","","","","","","","","","","","","","","","","","","","","feedback_test","",""
"","","","","","psychophysics","196","453697","0.0-9.0-0.0-0.0-0.0-0.68","553","","arrowleft","","","","","","","","","","","","","key","arrowleft","16.665217391304473","768","428","arrowright","false","../../test_img/15.png","自我","matching_task","朋友","[""<img src=\""../../test_img/26.png\"" width=150 style=\""vertical-align:middle\"">---生人"",""<img src=\""../../test_img/15.png\"" width=150 style=\""vertical-align:middle\"">---朋友"",""<img src=\""../../test_img/22.png\"" width=150 style=\""vertical-align:middle\"">---自我""]","","",""
"","","","","","html-keyboard-response","197","454205","0.0-9.0-0.0-0.0-0.0-1.68","null","<span style='color:red; font-size: 70px;'>错误! </span>","null","","","","","","","","","","","","","","","","","","","","","","","","","feedback_test","",""
"","","","","","psychophysics","198","455850","0.0-9.0-0.0-0.0-0.0-0.69","632","","arrowright","","","","","","","","","","","","","key","arrowright","16.66597938144306","768","428","arrowright","true","../../test_img/26.png","朋友","matching_task","生人","[""<img src=\""../../test_img/26.png\"" width=150 style=\""vertical-align:middle\"">---生人"",""<img src=\""../../test_img/15.png\"" width=150 style=\""vertical-align:middle\"">---朋友"",""<img src=\""../../test_img/22.png\"" width=150 style=\""vertical-align:middle\"">---自我""]","","",""
"","","","","","html-keyboard-response","199","456351","0.0-9.0-0.0-0.0-0.0-1.69","null","<span style='color:GreenYellow; font-size: 70px;'>正确! </span>","null","","","","","","","","","","","","","","","","","","","","","","","","","feedback_test","",""
"","","","","","psychophysics","200","458183","0.0-9.0-0.0-0.0-0.0-0.70","821","","arrowright","","","","","","","","","","","","","key","arrowright","16.666666666666668","768","428","arrowright","true","../../test_img/22.png","生人","matching_task","自我","[""<img src=\""../../test_img/26.png\"" width=150 style=\""vertical-align:middle\"">---生人"",""<img src=\""../../test_img/15.png\"" width=150 style=\""vertical-align:middle\"">---朋友"",""<img src=\""../../test_img/22.png\"" width=150 style=\""vertical-align:middle\"">---自我""]","","",""
"","","","","","html-keyboard-response","201","458697","0.0-9.0-0.0-0.0-0.0-1.70","null","<span style='color:GreenYellow; font-size: 70px;'>正确! </span>","null","","","","","","","","","","","","","","","","","","","","","","","","","feedback_test","",""
"","","","","","psychophysics","202","460393","0.0-9.0-0.0-0.0-0.0-0.71","692","","arrowleft","","","","","","","","","","","","","key","arrowleft","16.666336633663253","768","428","arrowleft","true","../../test_img/22.png","自我","matching_task","自我","[""<img src=\""../../test_img/26.png\"" width=150 style=\""vertical-align:middle\"">---生人"",""<img src=\""../../test_img/15.png\"" width=150 style=\""vertical-align:middle\"">---朋友"",""<img src=\""../../test_img/22.png\"" width=150 style=\""vertical-align:middle\"">---自我""]","","",""
"","","","","","html-keyboard-response","203","460903","0.0-9.0-0.0-0.0-0.0-1.71","null","<span style='color:GreenYellow; font-size: 70px;'>正确! </span>","null","","","","","","","","","","","","","","","","","","","","","","","","","feedback_test","",""
"","","","","","html-keyboard-response","204","465342","0.0-9.0-0.0-0.0-1.0","4437","<style>.context{color:white; font-size: 35px; line-height:40px}</style>                          <div><p class='context'>您正确回答了85% 的试次。</p><p class='context'>您的平均反应时为735毫秒。</p><p class='context'>请按任意键进入休息</p></div>"," ","","","","","","","","","","","","","","","","","","","","","","","","","","",""
"","","","","","html-button-response","205","527382","0.0-9.0-0.0-0.0-2.0","62039","
                    <p>知觉匹配任务中，您还剩余4组实验</p>
                    <p>现在是休息时间，当您结束休息后，您可以点击 结束休息 按钮 继续</p>
                    <p>建议休息时间还剩余<span id=""iii"">60</span>秒</p>","0","","","","","","","","","","","","","","","","","","","","","","","","","","",""
"","","","","","psychophysics","206","528969","0.0-9.0-0.0-0.0-0.1-0.72","580","","arrowleft","","","","","","","","","","","","","key","arrowleft","16.664893617021278","768","428","arrowleft","true","../../test_img/22.png","自我","matching_task","自我","[""<img src=\""../../test_img/26.png\"" width=150 style=\""vertical-align:middle\"">---生人"",""<img src=\""../../test_img/15.png\"" width=150 style=\""vertical-align:middle\"">---朋友"",""<img src=\""../../test_img/22.png\"" width=150 style=\""vertical-align:middle\"">---自我""]","","",""
"","","","","","html-keyboard-response","207","529477","0.0-9.0-0.0-0.0-0.1-1.72","null","<span style='color:GreenYellow; font-size: 70px;'>正确! </span>","null","","","","","","","","","","","","","","","","","","","","","","","","","feedback_test","",""
"","","","","","psychophysics","208","531047","0.0-9.0-0.0-0.0-0.1-0.73","566","","arrowright","","","","","","","","","","","","","key","arrowright","16.664130434782354","768","428","arrowleft","false","../../test_img/26.png","生人","matching_task","生人","[""<img src=\""../../test_img/26.png\"" width=150 style=\""vertical-align:middle\"">---生人"",""<img src=\""../../test_img/15.png\"" width=150 style=\""vertical-align:middle\"">---朋友"",""<img src=\""../../test_img/22.png\"" width=150 style=\""vertical-align:middle\"">---自我""]","","",""
"","","","","","html-keyboard-response","209","531556","0.0-9.0-0.0-0.0-0.1-1.73","null","<span style='color:red; font-size: 70px;'>错误! </span>","null","","","","","","","","","","","","","","","","","","","","","","","","","feedback_test","",""
"","","","","","psychophysics","210","532922","0.0-9.0-0.0-0.0-0.1-0.74","354","","arrowleft","","","","","","","","","","","","","key","arrowleft","16.66543209876572","768","428","arrowright","false","../../test_img/22.png","朋友","matching_task","自我","[""<img src=\""../../test_img/26.png\"" width=150 style=\""vertical-align:middle\"">---生人"",""<img src=\""../../test_img/15.png\"" width=150 style=\""vertical-align:middle\"">---朋友"",""<img src=\""../../test_img/22.png\"" width=150 style=\""vertical-align:middle\"">---自我""]","","",""
"","","","","","html-keyboard-response","211","533436","0.0-9.0-0.0-0.0-0.1-1.74","null","<span style='color:red; font-size: 70px;'>错误! </span>","null","","","","","","","","","","","","","","","","","","","","","","","","","feedback_test","",""
"","","","","","psychophysics","212","535057","0.0-9.0-0.0-0.0-0.1-0.75","610","","arrowleft","","","","","","","","","","","","","key","arrowleft","16.665625000000244","768","428","arrowleft","true","../../test_img/22.png","自我","matching_task","自我","[""<img src=\""../../test_img/26.png\"" width=150 style=\""vertical-align:middle\"">---生人"",""<img src=\""../../test_img/15.png\"" width=150 style=\""vertical-align:middle\"">---朋友"",""<img src=\""../../test_img/22.png\"" width=150 style=\""vertical-align:middle\"">---自我""]","","",""
"","","","","","html-keyboard-response","213","535561","0.0-9.0-0.0-0.0-0.1-1.75","null","<span style='color:GreenYellow; font-size: 70px;'>正确! </span>","null","","","","","","","","","","","","","","","","","","","","","","","","","feedback_test","",""
"","","","","","psychophysics","214","537396","0.0-9.0-0.0-0.0-0.1-0.76","832","","arrowleft","","","","","","","","","","","","","key","arrowleft","16.666666666666668","768","428","arrowright","false","../../test_img/15.png","自我","matching_task","朋友","[""<img src=\""../../test_img/26.png\"" width=150 style=\""vertical-align:middle\"">---生人"",""<img src=\""../../test_img/15.png\"" width=150 style=\""vertical-align:middle\"">---朋友"",""<img src=\""../../test_img/22.png\"" width=150 style=\""vertical-align:middle\"">---自我""]","","",""
"","","","","","html-keyboard-response","215","537897","0.0-9.0-0.0-0.0-0.1-1.76","null","<span style='color:red; font-size: 70px;'>错误! </span>","null","","","","","","","","","","","","","","","","","","","","","","","","","feedback_test","",""
"","","","","","psychophysics","216","539493","0.0-9.0-0.0-0.0-0.1-0.77","595","","arrowleft","","","","","","","","","","","","","key","arrowleft","16.668085106383476","768","428","arrowleft","true","../../test_img/26.png","生人","matching_task","生人","[""<img src=\""../../test_img/26.png\"" width=150 style=\""vertical-align:middle\"">---生人"",""<img src=\""../../test_img/15.png\"" width=150 style=\""vertical-align:middle\"">---朋友"",""<img src=\""../../test_img/22.png\"" width=150 style=\""vertical-align:middle\"">---自我""]","","",""
"","","","","","html-keyboard-response","217","539999","0.0-9.0-0.0-0.0-0.1-1.77","null","<span style='color:GreenYellow; font-size: 70px;'>正确! </span>","null","","","","","","","","","","","","","","","","","","","","","","","","","feedback_test","",""
"","","","","","psychophysics","218","541706","0.0-9.0-0.0-0.0-0.1-0.78","700","","arrowleft","","","","","","","","","","","","","key","arrowleft","16.665346534653004","768","428","arrowleft","true","../../test_img/15.png","朋友","matching_task","朋友","[""<img src=\""../../test_img/26.png\"" width=150 style=\""vertical-align:middle\"">---生人"",""<img src=\""../../test_img/15.png\"" width=150 style=\""vertical-align:middle\"">---朋友"",""<img src=\""../../test_img/22.png\"" width=150 style=\""vertical-align:middle\"">---自我""]","","",""
"","","","","","html-keyboard-response","219","542220","0.0-9.0-0.0-0.0-0.1-1.78","null","<span style='color:GreenYellow; font-size: 70px;'>正确! </span>","null","","","","","","","","","","","","","","","","","","","","","","","","","feedback_test","",""
"","","","","","psychophysics","220","544132","0.0-9.0-0.0-0.0-0.1-0.79","898","","arrowright","","","","","","","","","","","","","key","arrowright","16.666666666666668","768","428","arrowright","true","../../test_img/26.png","自我","matching_task","生人","[""<img src=\""../../test_img/26.png\"" width=150 style=\""vertical-align:middle\"">---生人"",""<img src=\""../../test_img/15.png\"" width=150 style=\""vertical-align:middle\"">---朋友"",""<img src=\""../../test_img/22.png\"" width=150 style=\""vertical-align:middle\"">---自我""]","","",""
"","","","","","html-keyboard-response","221","544635","0.0-9.0-0.0-0.0-0.1-1.79","null","<span style='color:GreenYellow; font-size: 70px;'>正确! </span>","null","","","","","","","","","","","","","","","","","","","","","","","","","feedback_test","",""
"","","","","","psychophysics","222","546403","0.0-9.0-0.0-0.0-0.1-0.80","756","","arrowright","","","","","","","","","","","","","key","arrowright","16.66476190476124","768","428","arrowright","true","../../test_img/26.png","朋友","matching_task","生人","[""<img src=\""../../test_img/26.png\"" width=150 style=\""vertical-align:middle\"">---生人"",""<img src=\""../../test_img/15.png\"" width=150 style=\""vertical-align:middle\"">---朋友"",""<img src=\""../../test_img/22.png\"" width=150 style=\""vertical-align:middle\"">---自我""]","","",""
"","","","","","html-keyboard-response","223","546919","0.0-9.0-0.0-0.0-0.1-1.80","null","<span style='color:GreenYellow; font-size: 70px;'>正确! </span>","null","","","","","","","","","","","","","","","","","","","","","","","","","feedback_test","",""
"","","","","","psychophysics","224","548635","0.0-9.0-0.0-0.0-0.1-0.81","708","","arrowright","","","","","","","","","","","","","key","arrowright","16.6647058823534","768","428","arrowright","true","../../test_img/15.png","生人","matching_task","朋友","[""<img src=\""../../test_img/26.png\"" width=150 style=\""vertical-align:middle\"">---生人"",""<img src=\""../../test_img/15.png\"" width=150 style=\""vertical-align:middle\"">---朋友"",""<img src=\""../../test_img/22.png\"" width=150 style=\""vertical-align:middle\"">---自我""]","","",""
"","","","","","html-keyboard-response","225","549143","0.0-9.0-0.0-0.0-0.1-1.81","null","<span style='color:GreenYellow; font-size: 70px;'>正确! </span>","null","","","","","","","","","","","","","","","","","","","","","","","","","feedback_test","",""
"","","","","","psychophysics","226","550823","0.0-9.0-0.0-0.0-0.1-0.82","677","","arrowleft","","","","","","","","","","","","","key","arrowleft","16.66767676767771","768","428","arrowright","false","../../test_img/22.png","生人","matching_task","自我","[""<img src=\""../../test_img/26.png\"" width=150 style=\""vertical-align:middle\"">---生人"",""<img src=\""../../test_img/15.png\"" width=150 style=\""vertical-align:middle\"">---朋友"",""<img src=\""../../test_img/22.png\"" width=150 style=\""vertical-align:middle\"">---自我""]","","",""
"","","","","","html-keyboard-response","227","551335","0.0-9.0-0.0-0.0-0.1-1.82","null","<span style='color:red; font-size: 70px;'>错误! </span>","null","","","","","","","","","","","","","","","","","","","","","","","","","feedback_test","",""
"","","","","","psychophysics","228","553060","0.0-9.0-0.0-0.0-0.1-0.83","717","","arrowleft","","","","","","","","","","","","","key","arrowleft","16.667647058823302","768","428","arrowleft","true","../../test_img/15.png","朋友","matching_task","朋友","[""<img src=\""../../test_img/26.png\"" width=150 style=\""vertical-align:middle\"">---生人"",""<img src=\""../../test_img/15.png\"" width=150 style=\""vertical-align:middle\"">---朋友"",""<img src=\""../../test_img/22.png\"" width=150 style=\""vertical-align:middle\"">---自我""]","","",""
"","","","","","html-keyboard-response","229","553573","0.0-9.0-0.0-0.0-0.1-1.83","null","<span style='color:GreenYellow; font-size: 70px;'>正确! </span>","null","","","","","","","","","","","","","","","","","","","","","","","","","feedback_test","",""
"","","","","","psychophysics","230","555130","0.0-9.0-0.0-0.0-0.1-0.84","546","","arrowright","","","","","","","","","","","","","key","arrowright","16.666666666666668","768","428","arrowright","true","../../test_img/26.png","朋友","matching_task","生人","[""<img src=\""../../test_img/26.png\"" width=150 style=\""vertical-align:middle\"">---生人"",""<img src=\""../../test_img/15.png\"" width=150 style=\""vertical-align:middle\"">---朋友"",""<img src=\""../../test_img/22.png\"" width=150 style=\""vertical-align:middle\"">---自我""]","","",""
"","","","","","html-keyboard-response","231","555637","0.0-9.0-0.0-0.0-0.1-1.84","null","<span style='color:GreenYellow; font-size: 70px;'>正确! </span>","null","","","","","","","","","","","","","","","","","","","","","","","","","feedback_test","",""
"","","","","","psychophysics","232","557328","0.0-9.0-0.0-0.0-0.1-0.85","680","","arrowright","","","","","","","","","","","","","key","arrowright","16.668000000000465","768","428","arrowright","true","../../test_img/26.png","自我","matching_task","生人","[""<img src=\""../../test_img/26.png\"" width=150 style=\""vertical-align:middle\"">---生人"",""<img src=\""../../test_img/15.png\"" width=150 style=\""vertical-align:middle\"">---朋友"",""<img src=\""../../test_img/22.png\"" width=150 style=\""vertical-align:middle\"">---自我""]","","",""
"","","","","","html-keyboard-response","233","557834","0.0-9.0-0.0-0.0-0.1-1.85","null","<span style='color:GreenYellow; font-size: 70px;'>正确! </span>","null","","","","","","","","","","","","","","","","","","","","","","","","","feedback_test","",""
"","","","","","psychophysics","234","559529","0.0-9.0-0.0-0.0-0.1-0.86","688","","arrowleft","","","","","","","","","","","","","key","arrowleft","16.66600000000093","768","428","arrowleft","true","../../test_img/22.png","自我","matching_task","自我","[""<img src=\""../../test_img/26.png\"" width=150 style=\""vertical-align:middle\"">---生人"",""<img src=\""../../test_img/15.png\"" width=150 style=\""vertical-align:middle\"">---朋友"",""<img src=\""../../test_img/22.png\"" width=150 style=\""vertical-align:middle\"">---自我""]","","",""
"","","","","","html-keyboard-response","235","560040","0.0-9.0-0.0-0.0-0.1-1.86","null","<span style='color:GreenYellow; font-size: 70px;'>正确! </span>","null","","","","","","","","","","","","","","","","","","","","","","","","","feedback_test","",""
"","","","","","psychophysics","236","561758","0.0-9.0-0.0-0.0-0.1-0.87","707","","arrowleft","","","","","","","","","","","","","key","arrowleft","16.668627450979937","768","428","arrowleft","true","../../test_img/15.png","朋友","matching_task","朋友","[""<img src=\""../../test_img/26.png\"" width=150 style=\""vertical-align:middle\"">---生人"",""<img src=\""../../test_img/15.png\"" width=150 style=\""vertical-align:middle\"">---朋友"",""<img src=\""../../test_img/22.png\"" width=150 style=\""vertical-align:middle\"">---自我""]","","",""
"","","","","","html-keyboard-response","237","562263","0.0-9.0-0.0-0.0-0.1-1.87","null","<span style='color:GreenYellow; font-size: 70px;'>正确! </span>","null","","","","","","","","","","","","","","","","","","","","","","","","","feedback_test","",""
"","","","","","psychophysics","238","563996","0.0-9.0-0.0-0.0-0.1-0.88","722","","arrowright","","","","","","","","","","","","","key","arrowright","16.665686274510033","768","428","arrowright","true","../../test_img/22.png","朋友","matching_task","自我","[""<img src=\""../../test_img/26.png\"" width=150 style=\""vertical-align:middle\"">---生人"",""<img src=\""../../test_img/15.png\"" width=150 style=\""vertical-align:middle\"">---朋友"",""<img src=\""../../test_img/22.png\"" width=150 style=\""vertical-align:middle\"">---自我""]","","",""
"","","","","","html-keyboard-response","239","564501","0.0-9.0-0.0-0.0-0.1-1.88","null","<span style='color:GreenYellow; font-size: 70px;'>正确! </span>","null","","","","","","","","","","","","","","","","","","","","","","","","","feedback_test","",""
"","","","","","psychophysics","240","566139","0.0-9.0-0.0-0.0-0.1-0.89","628","","arrowleft","","","","","","","","","","","","","key","arrowleft","16.66597938144306","768","428","arrowleft","true","../../test_img/26.png","生人","matching_task","生人","[""<img src=\""../../test_img/26.png\"" width=150 style=\""vertical-align:middle\"">---生人"",""<img src=\""../../test_img/15.png\"" width=150 style=\""vertical-align:middle\"">---朋友"",""<img src=\""../../test_img/22.png\"" width=150 style=\""vertical-align:middle\"">---自我""]","","",""
"","","","","","html-keyboard-response","241","566645","0.0-9.0-0.0-0.0-0.1-1.89","null","<span style='color:GreenYellow; font-size: 70px;'>正确! </span>","null","","","","","","","","","","","","","","","","","","","","","","","","","feedback_test","",""
"","","","","","psychophysics","242","568356","0.0-9.0-0.0-0.0-0.1-0.90","710","","arrowright","","","","","","","","","","","","","key","arrowright","16.66237623762399","768","428","arrowleft","false","../../test_img/15.png","朋友","matching_task","朋友","[""<img src=\""../../test_img/26.png\"" width=150 style=\""vertical-align:middle\"">---生人"",""<img src=\""../../test_img/15.png\"" width=150 style=\""vertical-align:middle\"">---朋友"",""<img src=\""../../test_img/22.png\"" width=150 style=\""vertical-align:middle\"">---自我""]","","",""
"","","","","","html-keyboard-response","243","568865","0.0-9.0-0.0-0.0-0.1-1.90","null","<span style='color:red; font-size: 70px;'>错误! </span>","null","","","","","","","","","","","","","","","","","","","","","","","","","feedback_test","",""
"","","","","","psychophysics","244","570503","0.0-9.0-0.0-0.0-0.1-0.91","629","","arrowleft","","","","","","","","","","","","","key","arrowleft","16.66597938144306","768","428","arrowleft","true","../../test_img/22.png","自我","matching_task","自我","[""<img src=\""../../test_img/26.png\"" width=150 style=\""vertical-align:middle\"">---生人"",""<img src=\""../../test_img/15.png\"" width=150 style=\""vertical-align:middle\"">---朋友"",""<img src=\""../../test_img/22.png\"" width=150 style=\""vertical-align:middle\"">---自我""]","","",""
"","","","","","html-keyboard-response","245","571014","0.0-9.0-0.0-0.0-0.1-1.91","null","<span style='color:GreenYellow; font-size: 70px;'>正确! </span>","null","","","","","","","","","","","","","","","","","","","","","","","","","feedback_test","",""
"","","","","","psychophysics","246","572642","0.0-9.0-0.0-0.0-0.1-0.92","618","","arrowright","","","","","","","","","","","","","key","arrowright","16.665625000000244","768","428","arrowleft","false","../../test_img/26.png","生人","matching_task","生人","[""<img src=\""../../test_img/26.png\"" width=150 style=\""vertical-align:middle\"">---生人"",""<img src=\""../../test_img/15.png\"" width=150 style=\""vertical-align:middle\"">---朋友"",""<img src=\""../../test_img/22.png\"" width=150 style=\""vertical-align:middle\"">---自我""]","","",""
"","","","","","html-keyboard-response","247","573146","0.0-9.0-0.0-0.0-0.1-1.92","null","<span style='color:red; font-size: 70px;'>错误! </span>","null","","","","","","","","","","","","","","","","","","","","","","","","","feedback_test","",""
"","","","","","psychophysics","248","574872","0.0-9.0-0.0-0.0-0.1-0.93","716","","arrowright","","","","","","","","","","","","","key","arrowright","16.651960784313726","768","428","arrowright","true","../../test_img/22.png","生人","matching_task","自我","[""<img src=\""../../test_img/26.png\"" width=150 style=\""vertical-align:middle\"">---生人"",""<img src=\""../../test_img/15.png\"" width=150 style=\""vertical-align:middle\"">---朋友"",""<img src=\""../../test_img/22.png\"" width=150 style=\""vertical-align:middle\"">---自我""]","","",""
"","","","","","html-keyboard-response","249","575385","0.0-9.0-0.0-0.0-0.1-1.93","null","<span style='color:GreenYellow; font-size: 70px;'>正确! </span>","null","","","","","","","","","","","","","","","","","","","","","","","","","feedback_test","",""
"","","","","","psychophysics","250","577198","0.0-9.0-0.0-0.0-0.1-0.94","811","","arrowright","","","","","","","","","","","","","key","arrowright","16.663888888888458","768","428","arrowright","true","../../test_img/15.png","自我","matching_task","朋友","[""<img src=\""../../test_img/26.png\"" width=150 style=\""vertical-align:middle\"">---生人"",""<img src=\""../../test_img/15.png\"" width=150 style=\""vertical-align:middle\"">---朋友"",""<img src=\""../../test_img/22.png\"" width=150 style=\""vertical-align:middle\"">---自我""]","","",""
"","","","","","html-keyboard-response","251","577707","0.0-9.0-0.0-0.0-0.1-1.94","null","<span style='color:GreenYellow; font-size: 70px;'>正确! </span>","null","","","","","","","","","","","","","","","","","","","","","","","","","feedback_test","",""
"","","","","","psychophysics","252","579541","0.0-9.0-0.0-0.0-0.1-0.95","830","","arrowright","","","","","","","","","","","","","key","arrowright","16.666055045871346","768","428","arrowright","true","../../test_img/15.png","生人","matching_task","朋友","[""<img src=\""../../test_img/26.png\"" width=150 style=\""vertical-align:middle\"">---生人"",""<img src=\""../../test_img/15.png\"" width=150 style=\""vertical-align:middle\"">---朋友"",""<img src=\""../../test_img/22.png\"" width=150 style=\""vertical-align:middle\"">---自我""]","","",""
"","","","","","html-keyboard-response","253","580043","0.0-9.0-0.0-0.0-0.1-1.95","null","<span style='color:GreenYellow; font-size: 70px;'>正确! </span>","null","","","","","","","","","","","","","","","","","","","","","","","","","feedback_test","",""
"","","","","","psychophysics","254","581847","0.0-9.0-0.0-0.0-0.1-0.96","802","","arrowright","","","","","","","","","","","","","key","arrowright","16.66542056074723","768","428","arrowright","true","../../test_img/26.png","自我","matching_task","生人","[""<img src=\""../../test_img/26.png\"" width=150 style=\""vertical-align:middle\"">---生人"",""<img src=\""../../test_img/15.png\"" width=150 style=\""vertical-align:middle\"">---朋友"",""<img src=\""../../test_img/22.png\"" width=150 style=\""vertical-align:middle\"">---自我""]","","",""
"","","","","","html-keyboard-response","255","582356","0.0-9.0-0.0-0.0-0.1-1.96","null","<span style='color:GreenYellow; font-size: 70px;'>正确! </span>","null","","","","","","","","","","","","","","","","","","","","","","","","","feedback_test","",""
"","","","","","psychophysics","256","584013","0.0-9.0-0.0-0.0-0.1-0.97","652","","arrowright","","","","","","","","","","","","","key","arrowright","16.666666666666668","768","428","arrowright","true","../../test_img/15.png","生人","matching_task","朋友","[""<img src=\""../../test_img/26.png\"" width=150 style=\""vertical-align:middle\"">---生人"",""<img src=\""../../test_img/15.png\"" width=150 style=\""vertical-align:middle\"">---朋友"",""<img src=\""../../test_img/22.png\"" width=150 style=\""vertical-align:middle\"">---自我""]","","",""
