"success","timeout","failed_images","failed_audio","failed_video","trial_type","trial_index","time_elapsed","internal_node_id","rt","stimulus","response","value","item_width_mm","item_height_mm","item_width_px","px2mm","view_dist_mm","item_width_deg","px2deg","scale_factor","win_width_deg","win_height_deg","view_history","response_type","key_press","avg_frame_time","center_x","center_y","condition","correct_response","correct","Image","LeftLable","RightLable","shape","association","screen_id"
"true","false","[]","[]","[]","preload","0","18","0.0-0.0","","","","","","","","","","","","","","","","","","","","","","","","","","","","",""
"","","","","","html-keyboard-response","1","646","0.0-1.0","627","
     <p>您好，欢迎参加本次实验。</p>
     <p>为充分保障您的权利，请确保您已经知晓并同意《参与实验同意书》以及《数据公开知情同意书》。</p>
     <p>如果您未见过上述内容，请咨询实验员。</p>
     <p>如果您选择继续实验，则表示您已经清楚两份知情同意书的内容并同意。</p>
     <p> <div style = ""color: green""><按任意键至下页></div> </p>
     "," ","","","","","","","","","","","","","","","","","","","","","","","","","",""
"","","","","","html-keyboard-response","2","811","0.0-2.0","165","
     <p>本实验首先需要您填写一些基本个人信息。</p>
     <p> <div style = ""color: green""><按任意键至下页></div></p>
     "," ","","","","","","","","","","","","","","","","","","","","","","","","","",""
"","","","","","call-function","3","812","0.0-3.0-0.0","","","","","","","","","","","","","","","","","","","","","","","","","","","","",""
"","","","","","survey-html-form","4","3145","0.0-3.0-1.0","2331","","{""Q0"":""66""}","","","","","","","","","","","","","","","","","","","","","","","","","",""
"","","","","","html-button-response","5","4084","0.0-3.0-2.0","937","<p style = 'color : white'>您的性别</p>","1","","","","","","","","","","","","","","","","","","","","","","","","","",""
"","","","","","survey-html-form","6","5366","0.0-3.0-3.0","1281","","{""Q0"":""1900""}","","","","","","","","","","","","","","","","","","","","","","","","","",""
"","","","","","survey-html-form","7","6401","0.0-3.0-4.0","1034","","{""Q0"":""6""}","","","","","","","","","","","","","","","","","","","","","","","","","",""
"","","","","","virtual-chinrest","8","12768","0.0-4.0","6366","","","","85.6","53.98","503.48784545343216","5.882458495875527","485.8","10.069756909068644","50","0.7904858152863021","33.98","16","","","","","","","","","","","","","","",""
"true","","","","","fullscreen","9","17321","0.0-5.0","","","","","","","","","","","","","","","","","","","","","","","","","","","","",""
"","","","","","instructions","10","25488","0.0-6.0","8167","","","","","","","","","","","","","","[{""page_index"":0,""viewing_time"":2069},{""page_index"":1,""viewing_time"":2551},{""page_index"":2,""viewing_time"":1657},{""page_index"":3,""viewing_time"":907},{""page_index"":4,""viewing_time"":982}]","","","","","","","","","","","","","",""
"","","","","","instructions","11","42548","0.0-7.0","17060","","","","","","","","","","","","","","[{""page_index"":0,""viewing_time"":5737},{""page_index"":1,""viewing_time"":6112},{""page_index"":2,""viewing_time"":4392},{""page_index"":3,""viewing_time"":819}]","","","","","","","","","","","","","",""
"","","","","","instructions","12","45380","0.0-8.0","2831","","","","","","","","","","","","","","[{""page_index"":0,""viewing_time"":2831}]","","","","","","","","","","","","","",""
"","","","","","psychophysics","13","47164","0.0-9.0-0.0-0.0","681","","arrowleft","","","","","","","","","","","","","key","arrowleft","4.165962441314547","853.3333333333334","476","prac_classify_self","arrowleft","true","../../test_img/12.png","自我","其他","自我","[""<img src=\""../../test_img/12.png\"" width=150 style=\""vertical-align:middle\"">---自我"",""<img src=\""../../test_img/25.png\"" width=150 style=\""vertical-align:middle\"">---生人"",""<img src=\""../../test_img/19.png\"" width=150 style=\""vertical-align:middle\"">---朋友""]",""
"","","","","","html-keyboard-response","14","47479","0.0-9.0-0.0-1.0","null","<span style='color:GreenYellow; font-size: 70px;'>正确! </span>","null","","","","","","","","","","","","","","","","","","","","","","","","","","feedback_test"
"","","","","","psychophysics","15","49072","0.0-9.0-0.0-0.1","491","","arrowright","","","","","","","","","","","","","key","arrowright","4.165616797900259","853.3333333333334","476","prac_classify_self","arrowright","true","../../test_img/19.png","自我","其他","朋友","[""<img src=\""../../test_img/12.png\"" width=150 style=\""vertical-align:middle\"">---自我"",""<img src=\""../../test_img/25.png\"" width=150 style=\""vertical-align:middle\"">---生人"",""<img src=\""../../test_img/19.png\"" width=150 style=\""vertical-align:middle\"">---朋友""]",""
"","","","","","html-keyboard-response","16","49385","0.0-9.0-0.0-1.1","null","<span style='color:GreenYellow; font-size: 70px;'>正确! </span>","null","","","","","","","","","","","","","","","","","","","","","","","","","","feedback_test"
"","","","","","psychophysics","17","51127","0.0-9.0-0.0-0.2","640","","arrowleft","","","","","","","","","","","","","key","arrowleft","4.163461538461538","853.3333333333334","476","prac_classify_self","arrowleft","true","../../test_img/25.png","其他","自我","生人","[""<img src=\""../../test_img/12.png\"" width=150 style=\""vertical-align:middle\"">---自我"",""<img src=\""../../test_img/25.png\"" width=150 style=\""vertical-align:middle\"">---生人"",""<img src=\""../../test_img/19.png\"" width=150 style=\""vertical-align:middle\"">---朋友""]",""
"","","","","","html-keyboard-response","18","51434","0.0-9.0-0.0-1.2","null","<span style='color:GreenYellow; font-size: 70px;'>正确! </span>","null","","","","","","","","","","","","","","","","","","","","","","","","","","feedback_test"
"","","","","","psychophysics","19","53245","0.0-9.0-0.0-0.3","709","","arrowright","","","","","","","","","","","","","key","arrowright","4.166743648960733","853.3333333333334","476","prac_classify_self","arrowright","true","../../test_img/25.png","自我","其他","生人","[""<img src=\""../../test_img/12.png\"" width=150 style=\""vertical-align:middle\"">---自我"",""<img src=\""../../test_img/25.png\"" width=150 style=\""vertical-align:middle\"">---生人"",""<img src=\""../../test_img/19.png\"" width=150 style=\""vertical-align:middle\"">---朋友""]",""
"","","","","","html-keyboard-response","20","53558","0.0-9.0-0.0-1.3","null","<span style='color:GreenYellow; font-size: 70px;'>正确! </span>","null","","","","","","","","","","","","","","","","","","","","","","","","","","feedback_test"
"","","","","","psychophysics","21","55201","0.0-9.0-0.0-0.4","541","","arrowright","","","","","","","","","","","","","key","arrowright","4.166157760814257","853.3333333333334","476","prac_classify_self","arrowright","true","../../test_img/12.png","其他","自我","自我","[""<img src=\""../../test_img/12.png\"" width=150 style=\""vertical-align:middle\"">---自我"",""<img src=\""../../test_img/25.png\"" width=150 style=\""vertical-align:middle\"">---生人"",""<img src=\""../../test_img/19.png\"" width=150 style=\""vertical-align:middle\"">---朋友""]",""
"","","","","","html-keyboard-response","22","55513","0.0-9.0-0.0-1.4","null","<span style='color:GreenYellow; font-size: 70px;'>正确! </span>","null","","","","","","","","","","","","","","","","","","","","","","","","","","feedback_test"
"","","","","","psychophysics","23","57538","0.0-9.0-0.0-0.5","923","","arrowleft","","","","","","","","","","","","","key","arrowleft","4.166185567010306","853.3333333333334","476","prac_classify_self","arrowleft","true","../../test_img/19.png","其他","自我","朋友","[""<img src=\""../../test_img/12.png\"" width=150 style=\""vertical-align:middle\"">---自我"",""<img src=\""../../test_img/25.png\"" width=150 style=\""vertical-align:middle\"">---生人"",""<img src=\""../../test_img/19.png\"" width=150 style=\""vertical-align:middle\"">---朋友""]",""
"","","","","","html-keyboard-response","24","57845","0.0-9.0-0.0-1.5","null","<span style='color:GreenYellow; font-size: 70px;'>正确! </span>","null","","","","","","","","","","","","","","","","","","","","","","","","","","feedback_test"
"","","","","","psychophysics","25","59463","0.0-9.0-0.0-0.6","515","","arrowright","","","","","","","","","","","","","key","arrowright","4.165633074935397","853.3333333333334","476","prac_classify_self","arrowright","true","../../test_img/25.png","自我","其他","生人","[""<img src=\""../../test_img/12.png\"" width=150 style=\""vertical-align:middle\"">---自我"",""<img src=\""../../test_img/25.png\"" width=150 style=\""vertical-align:middle\"">---生人"",""<img src=\""../../test_img/19.png\"" width=150 style=\""vertical-align:middle\"">---朋友""]",""
"","","","","","html-keyboard-response","26","59773","0.0-9.0-0.0-1.6","null","<span style='color:GreenYellow; font-size: 70px;'>正确! </span>","null","","","","","","","","","","","","","","","","","","","","","","","","","","feedback_test"
"","","","","","psychophysics","27","61387","0.0-9.0-0.0-0.7","511","","arrowright","","","","","","","","","","","","","key","arrowright","4.166321243523308","853.3333333333334","476","prac_classify_self","arrowright","true","../../test_img/12.png","其他","自我","自我","[""<img src=\""../../test_img/12.png\"" width=150 style=\""vertical-align:middle\"">---自我"",""<img src=\""../../test_img/25.png\"" width=150 style=\""vertical-align:middle\"">---生人"",""<img src=\""../../test_img/19.png\"" width=150 style=\""vertical-align:middle\"">---朋友""]",""
"","","","","","html-keyboard-response","28","61702","0.0-9.0-0.0-1.7","null","<span style='color:GreenYellow; font-size: 70px;'>正确! </span>","null","","","","","","","","","","","","","","","","","","","","","","","","","","feedback_test"
"","","","","","psychophysics","29","63356","0.0-9.0-0.0-0.8","552","","arrowleft","","","","","","","","","","","","","key","arrowleft","4.166414141414145","853.3333333333334","476","prac_classify_self","arrowleft","true","../../test_img/12.png","自我","其他","自我","[""<img src=\""../../test_img/12.png\"" width=150 style=\""vertical-align:middle\"">---自我"",""<img src=\""../../test_img/25.png\"" width=150 style=\""vertical-align:middle\"">---生人"",""<img src=\""../../test_img/19.png\"" width=150 style=\""vertical-align:middle\"">---朋友""]",""
"","","","","","html-keyboard-response","30","63662","0.0-9.0-0.0-1.8","null","<span style='color:GreenYellow; font-size: 70px;'>正确! </span>","null","","","","","","","","","","","","","","","","","","","","","","","","","","feedback_test"
"","","","","","psychophysics","31","65220","0.0-9.0-0.0-0.9","456","","arrowright","","","","","","","","","","","","","key","arrowright","4.165683646112608","853.3333333333334","476","prac_classify_self","arrowleft","false","../../test_img/25.png","其他","自我","生人","[""<img src=\""../../test_img/12.png\"" width=150 style=\""vertical-align:middle\"">---自我"",""<img src=\""../../test_img/25.png\"" width=150 style=\""vertical-align:middle\"">---生人"",""<img src=\""../../test_img/19.png\"" width=150 style=\""vertical-align:middle\"">---朋友""]",""
"","","","","","html-keyboard-response","32","65527","0.0-9.0-0.0-1.9","null","<span style='color:red; font-size: 70px;'>错误! </span>","null","","","","","","","","","","","","","","","","","","","","","","","","","","feedback_test"
"","","","","","psychophysics","33","67166","0.0-9.0-0.0-0.10","536","","arrowright","","","","","","","","","","","","","key","arrowright","4.1663265306122375","853.3333333333334","476","prac_classify_self","arrowright","true","../../test_img/19.png","自我","其他","朋友","[""<img src=\""../../test_img/12.png\"" width=150 style=\""vertical-align:middle\"">---自我"",""<img src=\""../../test_img/25.png\"" width=150 style=\""vertical-align:middle\"">---生人"",""<img src=\""../../test_img/19.png\"" width=150 style=\""vertical-align:middle\"">---朋友""]",""
"","","","","","html-keyboard-response","34","67482","0.0-9.0-0.0-1.10","null","<span style='color:GreenYellow; font-size: 70px;'>正确! </span>","null","","","","","","","","","","","","","","","","","","","","","","","","","","feedback_test"
"","","","","","psychophysics","35","69519","0.0-9.0-0.0-0.11","935","","arrowright","","","","","","","","","","","","","key","arrowright","4.166393442622975","853.3333333333334","476","prac_classify_self","arrowleft","false","../../test_img/19.png","其他","自我","朋友","[""<img src=\""../../test_img/12.png\"" width=150 style=\""vertical-align:middle\"">---自我"",""<img src=\""../../test_img/25.png\"" width=150 style=\""vertical-align:middle\"">---生人"",""<img src=\""../../test_img/19.png\"" width=150 style=\""vertical-align:middle\"">---朋友""]",""
"","","","","","html-keyboard-response","36","69832","0.0-9.0-0.0-1.11","null","<span style='color:red; font-size: 70px;'>错误! </span>","null","","","","","","","","","","","","","","","","","","","","","","","","","","feedback_test"
"","","","","","psychophysics","37","71562","0.0-9.0-0.0-0.12","629","","arrowleft","","","","","","","","","","","","","key","arrowleft","4.162953995157356","853.3333333333334","476","prac_classify_self","arrowleft","true","../../test_img/25.png","其他","自我","生人","[""<img src=\""../../test_img/12.png\"" width=150 style=\""vertical-align:middle\"">---自我"",""<img src=\""../../test_img/25.png\"" width=150 style=\""vertical-align:middle\"">---生人"",""<img src=\""../../test_img/19.png\"" width=150 style=\""vertical-align:middle\"">---朋友""]",""
"","","","","","html-keyboard-response","38","71864","0.0-9.0-0.0-1.12","null","<span style='color:GreenYellow; font-size: 70px;'>正确! </span>","null","","","","","","","","","","","","","","","","","","","","","","","","","","feedback_test"
"","","","","","psychophysics","39","73466","0.0-9.0-0.0-0.13","500","","arrowright","","","","","","","","","","","","","key","arrowright","4.166318537859","853.3333333333334","476","prac_classify_self","arrowright","true","../../test_img/25.png","自我","其他","生人","[""<img src=\""../../test_img/12.png\"" width=150 style=\""vertical-align:middle\"">---自我"",""<img src=\""../../test_img/25.png\"" width=150 style=\""vertical-align:middle\"">---生人"",""<img src=\""../../test_img/19.png\"" width=150 style=\""vertical-align:middle\"">---朋友""]",""
"","","","","","html-keyboard-response","40","73773","0.0-9.0-0.0-1.13","null","<span style='color:GreenYellow; font-size: 70px;'>正确! </span>","null","","","","","","","","","","","","","","","","","","","","","","","","","","feedback_test"
"","","","","","psychophysics","41","75465","0.0-9.0-0.0-0.14","590","","arrowleft","","","","","","","","","","","","","key","arrowleft","4.165925925925954","853.3333333333334","476","prac_classify_self","arrowleft","true","../../test_img/12.png","自我","其他","自我","[""<img src=\""../../test_img/12.png\"" width=150 style=\""vertical-align:middle\"">---自我"",""<img src=\""../../test_img/25.png\"" width=150 style=\""vertical-align:middle\"">---生人"",""<img src=\""../../test_img/19.png\"" width=150 style=\""vertical-align:middle\"">---朋友""]",""
"","","","","","html-keyboard-response","42","75776","0.0-9.0-0.0-1.14","null","<span style='color:GreenYellow; font-size: 70px;'>正确! </span>","null","","","","","","","","","","","","","","","","","","","","","","","","","","feedback_test"
"","","","","","psychophysics","43","77492","0.0-9.0-0.0-0.15","614","","arrowright","","","","","","","","","","","","","key","arrowright","4.1658536585365855","853.3333333333334","476","prac_classify_self","arrowright","true","../../test_img/19.png","自我","其他","朋友","[""<img src=\""../../test_img/12.png\"" width=150 style=\""vertical-align:middle\"">---自我"",""<img src=\""../../test_img/25.png\"" width=150 style=\""vertical-align:middle\"">---生人"",""<img src=\""../../test_img/19.png\"" width=150 style=\""vertical-align:middle\"">---朋友""]",""
"","","","","","html-keyboard-response","44","77794","0.0-9.0-0.0-1.15","null","<span style='color:GreenYellow; font-size: 70px;'>正确! </span>","null","","","","","","","","","","","","","","","","","","","","","","","","","","feedback_test"
"","","","","","psychophysics","45","79515","0.0-9.0-0.0-0.16","621","","arrowleft","","","","","","","","","","","","","key","arrowleft","4.1622871046229","853.3333333333334","476","prac_classify_self","arrowleft","true","../../test_img/19.png","其他","自我","朋友","[""<img src=\""../../test_img/12.png\"" width=150 style=\""vertical-align:middle\"">---自我"",""<img src=\""../../test_img/25.png\"" width=150 style=\""vertical-align:middle\"">---生人"",""<img src=\""../../test_img/19.png\"" width=150 style=\""vertical-align:middle\"">---朋友""]",""
"","","","","","html-keyboard-response","46","79828","0.0-9.0-0.0-1.16","null","<span style='color:GreenYellow; font-size: 70px;'>正确! </span>","null","","","","","","","","","","","","","","","","","","","","","","","","","","feedback_test"
"","","","","","psychophysics","47","81436","0.0-9.0-0.0-0.17","507","","arrowright","","","","","","","","","","","","","key","arrowright","4.165885416666659","853.3333333333334","476","prac_classify_self","arrowright","true","../../test_img/12.png","其他","自我","自我","[""<img src=\""../../test_img/12.png\"" width=150 style=\""vertical-align:middle\"">---自我"",""<img src=\""../../test_img/25.png\"" width=150 style=\""vertical-align:middle\"">---生人"",""<img src=\""../../test_img/19.png\"" width=150 style=\""vertical-align:middle\"">---朋友""]",""
"","","","","","html-keyboard-response","48","81751","0.0-9.0-0.0-1.17","null","<span style='color:GreenYellow; font-size: 70px;'>正确! </span>","null","","","","","","","","","","","","","","","","","","","","","","","","","","feedback_test"
"","","","","","psychophysics","49","83711","0.0-9.0-0.0-0.18","858","","arrowleft","","","","","","","","","","","","","key","arrowleft","4.165884861407256","853.3333333333334","476","prac_classify_self","arrowleft","true","../../test_img/25.png","其他","自我","生人","[""<img src=\""../../test_img/12.png\"" width=150 style=\""vertical-align:middle\"">---自我"",""<img src=\""../../test_img/25.png\"" width=150 style=\""vertical-align:middle\"">---生人"",""<img src=\""../../test_img/19.png\"" width=150 style=\""vertical-align:middle\"">---朋友""]",""
"","","","","","html-keyboard-response","50","84023","0.0-9.0-0.0-1.18","null","<span style='color:GreenYellow; font-size: 70px;'>正确! </span>","null","","","","","","","","","","","","","","","","","","","","","","","","","","feedback_test"
"","","","","","psychophysics","51","85650","0.0-9.0-0.0-0.19","527","","arrowright","","","","","","","","","","","","","key","arrowright","4.166066838046287","853.3333333333334","476","prac_classify_self","arrowright","true","../../test_img/12.png","其他","自我","自我","[""<img src=\""../../test_img/12.png\"" width=150 style=\""vertical-align:middle\"">---自我"",""<img src=\""../../test_img/25.png\"" width=150 style=\""vertical-align:middle\"">---生人"",""<img src=\""../../test_img/19.png\"" width=150 style=\""vertical-align:middle\"">---朋友""]",""
"","","","","","html-keyboard-response","52","85965","0.0-9.0-0.0-1.19","null","<span style='color:GreenYellow; font-size: 70px;'>正确! </span>","null","","","","","","","","","","","","","","","","","","","","","","","","","","feedback_test"
"","","","","","psychophysics","53","87561","0.0-9.0-0.0-0.20","492","","arrowleft","","","","","","","","","","","","","key","arrowleft","4.166492146596874","853.3333333333334","476","prac_classify_self","arrowleft","true","../../test_img/12.png","自我","其他","自我","[""<img src=\""../../test_img/12.png\"" width=150 style=\""vertical-align:middle\"">---自我"",""<img src=\""../../test_img/25.png\"" width=150 style=\""vertical-align:middle\"">---生人"",""<img src=\""../../test_img/19.png\"" width=150 style=\""vertical-align:middle\"">---朋友""]",""
"","","","","","html-keyboard-response","54","87863","0.0-9.0-0.0-1.20","null","<span style='color:GreenYellow; font-size: 70px;'>正确! </span>","null","","","","","","","","","","","","","","","","","","","","","","","","","","feedback_test"
"","","","","","psychophysics","55","89475","0.0-9.0-0.0-0.21","510","","arrowright","","","","","","","","","","","","","key","arrowright","4.166321243523308","853.3333333333334","476","prac_classify_self","arrowright","true","../../test_img/19.png","自我","其他","朋友","[""<img src=\""../../test_img/12.png\"" width=150 style=\""vertical-align:middle\"">---自我"",""<img src=\""../../test_img/25.png\"" width=150 style=\""vertical-align:middle\"">---生人"",""<img src=\""../../test_img/19.png\"" width=150 style=\""vertical-align:middle\"">---朋友""]",""
"","","","","","html-keyboard-response","56","89789","0.0-9.0-0.0-1.21","null","<span style='color:GreenYellow; font-size: 70px;'>正确! </span>","null","","","","","","","","","","","","","","","","","","","","","","","","","","feedback_test"
"","","","","","psychophysics","57","91404","0.0-9.0-0.0-0.22","515","","arrowleft","","","","","","","","","","","","","key","arrowleft","4.1655440414507625","853.3333333333334","476","prac_classify_self","arrowleft","true","../../test_img/19.png","其他","自我","朋友","[""<img src=\""../../test_img/12.png\"" width=150 style=\""vertical-align:middle\"">---自我"",""<img src=\""../../test_img/25.png\"" width=150 style=\""vertical-align:middle\"">---生人"",""<img src=\""../../test_img/19.png\"" width=150 style=\""vertical-align:middle\"">---朋友""]",""
"","","","","","html-keyboard-response","58","91717","0.0-9.0-0.0-1.22","null","<span style='color:GreenYellow; font-size: 70px;'>正确! </span>","null","","","","","","","","","","","","","","","","","","","","","","","","","","feedback_test"
"","","","","","psychophysics","59","93333","0.0-9.0-0.0-0.23","515","","arrowright","","","","","","","","","","","","","key","arrowright","4.162953367875633","853.3333333333334","476","prac_classify_self","arrowright","true","../../test_img/25.png","自我","其他","生人","[""<img src=\""../../test_img/12.png\"" width=150 style=\""vertical-align:middle\"">---自我"",""<img src=\""../../test_img/25.png\"" width=150 style=\""vertical-align:middle\"">---生人"",""<img src=\""../../test_img/19.png\"" width=150 style=\""vertical-align:middle\"">---朋友""]",""
"","","","","","html-keyboard-response","60","93645","0.0-9.0-0.0-1.23","null","<span style='color:GreenYellow; font-size: 70px;'>正确! </span>","null","","","","","","","","","","","","","","","","","","","","","","","","","","feedback_test"
"","","","","","psychophysics","61","95267","0.0-9.0-0.0-0.24","519","","arrowright","","","","","","","","","","","","","key","arrowright","4.166237113402062","853.3333333333334","476","prac_classify_self","arrowright","true","../../test_img/19.png","自我","其他","朋友","[""<img src=\""../../test_img/12.png\"" width=150 style=\""vertical-align:middle\"">---自我"",""<img src=\""../../test_img/25.png\"" width=150 style=\""vertical-align:middle\"">---生人"",""<img src=\""../../test_img/19.png\"" width=150 style=\""vertical-align:middle\"">---朋友""]",""
"","","","","","html-keyboard-response","62","95574","0.0-9.0-0.0-1.24","null","<span style='color:GreenYellow; font-size: 70px;'>正确! </span>","null","","","","","","","","","","","","","","","","","","","","","","","","","","feedback_test"
"","","","","","psychophysics","63","97207","0.0-9.0-0.0-0.25","530","","arrowright","","","","","","","","","","","","","key","arrowright","4.165728900255762","853.3333333333334","476","prac_classify_self","arrowright","true","../../test_img/12.png","其他","自我","自我","[""<img src=\""../../test_img/12.png\"" width=150 style=\""vertical-align:middle\"">---自我"",""<img src=\""../../test_img/25.png\"" width=150 style=\""vertical-align:middle\"">---生人"",""<img src=\""../../test_img/19.png\"" width=150 style=\""vertical-align:middle\"">---朋友""]",""
"","","","","","html-keyboard-response","64","97522","0.0-9.0-0.0-1.25","null","<span style='color:GreenYellow; font-size: 70px;'>正确! </span>","null","","","","","","","","","","","","","","","","","","","","","","","","","","feedback_test"
"","","","","","psychophysics","65","99127","0.0-9.0-0.0-0.26","502","","arrowleft","","","","","","","","","","","","","key","arrowleft","4.166145833333341","853.3333333333334","476","prac_classify_self","arrowleft","true","../../test_img/25.png","其他","自我","生人","[""<img src=\""../../test_img/12.png\"" width=150 style=\""vertical-align:middle\"">---自我"",""<img src=\""../../test_img/25.png\"" width=150 style=\""vertical-align:middle\"">---生人"",""<img src=\""../../test_img/19.png\"" width=150 style=\""vertical-align:middle\"">---朋友""]",""
"","","","","","html-keyboard-response","66","99428","0.0-9.0-0.0-1.26","null","<span style='color:GreenYellow; font-size: 70px;'>正确! </span>","null","","","","","","","","","","","","","","","","","","","","","","","","","","feedback_test"
"","","","","","psychophysics","67","101032","0.0-9.0-0.0-0.27","502","","arrowright","","","","","","","","","","","","","key","arrowright","4.162402088772838","853.3333333333334","476","prac_classify_self","arrowright","true","../../test_img/25.png","自我","其他","生人","[""<img src=\""../../test_img/12.png\"" width=150 style=\""vertical-align:middle\"">---自我"",""<img src=\""../../test_img/25.png\"" width=150 style=\""vertical-align:middle\"">---生人"",""<img src=\""../../test_img/19.png\"" width=150 style=\""vertical-align:middle\"">---朋友""]",""
"","","","","","html-keyboard-response","68","101341","0.0-9.0-0.0-1.27","null","<span style='color:GreenYellow; font-size: 70px;'>正确! </span>","null","","","","","","","","","","","","","","","","","","","","","","","","","","feedback_test"
"","","","","","psychophysics","69","102918","0.0-9.0-0.0-0.28","476","","arrowleft","","","","","","","","","","","","","key","arrowleft","4.165873015873008","853.3333333333334","476","prac_classify_self","arrowleft","true","../../test_img/12.png","自我","其他","自我","[""<img src=\""../../test_img/12.png\"" width=150 style=\""vertical-align:middle\"">---自我"",""<img src=\""../../test_img/25.png\"" width=150 style=\""vertical-align:middle\"">---生人"",""<img src=\""../../test_img/19.png\"" width=150 style=\""vertical-align:middle\"">---朋友""]",""
"","","","","","html-keyboard-response","70","103220","0.0-9.0-0.0-1.28","null","<span style='color:GreenYellow; font-size: 70px;'>正确! </span>","null","","","","","","","","","","","","","","","","","","","","","","","","","","feedback_test"
"","","","","","psychophysics","71","104908","0.0-9.0-0.0-0.29","587","","arrowleft","","","","","","","","","","","","","key","arrowleft","4.161786600496271","853.3333333333334","476","prac_classify_self","arrowleft","true","../../test_img/19.png","其他","自我","朋友","[""<img src=\""../../test_img/12.png\"" width=150 style=\""vertical-align:middle\"">---自我"",""<img src=\""../../test_img/25.png\"" width=150 style=\""vertical-align:middle\"">---生人"",""<img src=\""../../test_img/19.png\"" width=150 style=\""vertical-align:middle\"">---朋友""]",""
"","","","","","html-keyboard-response","72","105211","0.0-9.0-0.0-1.29","null","<span style='color:GreenYellow; font-size: 70px;'>正确! </span>","null","","","","","","","","","","","","","","","","","","","","","","","","","","feedback_test"
"","","","","","html-keyboard-response","73","107029","0.0-10.0","1817","<style>.context{color:white; font-size: 35px; line-height:40px}</style>                          <div><p class='context'>您正确回答了93% 的试次。</p><p class='context'>您的平均反应时为575毫秒。</p><p class='context'>恭喜您完成练习。按任意键进入分类任务正式实验。</p><p style = 'color:lightgreen; font-size: 35px;' >正式实验与练习要求相同，请您尽可能又快又准地进行按键反应</p><p class='footer' style='font-size: 22px; line-height:40px;'>请将您右手的<span style='color: lightgreen;'>食指与无名指</span>放在电脑键盘的相应键位上进行按键。</p>","arrowright","","","","","","","","","","","","","","","","","","","","","","","","","",""
"","","","","","psychophysics","74","108968","0.0-11.0-0.0-0.0-0.0-0.0","839","","arrowleft","","","","","","","","","","","","","key","arrowleft","4.166163793103429","853.3333333333334","476","classify_self","arrowright","false","../../test_img/19.png","自我","其他","朋友","[""<img src=\""../../test_img/12.png\"" width=150 style=\""vertical-align:middle\"">---自我"",""<img src=\""../../test_img/25.png\"" width=150 style=\""vertical-align:middle\"">---生人"",""<img src=\""../../test_img/19.png\"" width=150 style=\""vertical-align:middle\"">---朋友""]",""
"","","","","","html-keyboard-response","75","109271","0.0-11.0-0.0-0.0-0.0-1.0","null","<span style='color:red; font-size: 70px;'>错误! </span>","null","","","","","","","","","","","","","","","","","","","","","","","","","","feedback_test"
"","","","","","psychophysics","76","110960","0.0-11.0-0.0-0.0-0.0-0.1","586","","arrowright","","","","","","","","","","","","","key","arrowright","4.166089108910906","853.3333333333334","476","classify_self","arrowright","true","../../test_img/12.png","其他","自我","自我","[""<img src=\""../../test_img/12.png\"" width=150 style=\""vertical-align:middle\"">---自我"",""<img src=\""../../test_img/25.png\"" width=150 style=\""vertical-align:middle\"">---生人"",""<img src=\""../../test_img/19.png\"" width=150 style=\""vertical-align:middle\"">---朋友""]",""
"","","","","","html-keyboard-response","77","111270","0.0-11.0-0.0-0.0-0.0-1.1","null","<span style='color:GreenYellow; font-size: 70px;'>正确! </span>","null","","","","","","","","","","","","","","","","","","","","","","","","","","feedback_test"
"","","","","","psychophysics","78","112854","0.0-11.0-0.0-0.0-0.0-0.2","480","","arrowright","","","","","","","","","","","","","key","arrowright","4.165435356200558","853.3333333333334","476","classify_self","arrowright","true","../../test_img/25.png","自我","其他","生人","[""<img src=\""../../test_img/12.png\"" width=150 style=\""vertical-align:middle\"">---自我"",""<img src=\""../../test_img/25.png\"" width=150 style=\""vertical-align:middle\"">---生人"",""<img src=\""../../test_img/19.png\"" width=150 style=\""vertical-align:middle\"">---朋友""]",""
"","","","","","html-keyboard-response","79","113170","0.0-11.0-0.0-0.0-0.0-1.2","null","<span style='color:GreenYellow; font-size: 70px;'>正确! </span>","null","","","","","","","","","","","","","","","","","","","","","","","","","","feedback_test"
"","","","","","psychophysics","80","114854","0.0-11.0-0.0-0.0-0.0-0.3","583","","arrowleft","","","","","","","","","","","","","key","arrowleft","4.166004962779142","853.3333333333334","476","classify_self","arrowleft","true","../../test_img/12.png","自我","其他","自我","[""<img src=\""../../test_img/12.png\"" width=150 style=\""vertical-align:middle\"">---自我"",""<img src=\""../../test_img/25.png\"" width=150 style=\""vertical-align:middle\"">---生人"",""<img src=\""../../test_img/19.png\"" width=150 style=\""vertical-align:middle\"">---朋友""]",""
"","","","","","html-keyboard-response","81","115158","0.0-11.0-0.0-0.0-0.0-1.3","null","<span style='color:GreenYellow; font-size: 70px;'>正确! </span>","null","","","","","","","","","","","","","","","","","","","","","","","","","","feedback_test"
"","","","","","psychophysics","82","116760","0.0-11.0-0.0-0.0-0.0-0.4","499","","arrowleft","","","","","","","","","","","","","key","arrowleft","4.1660574412532405","853.3333333333334","476","classify_self","arrowleft","true","../../test_img/25.png","其他","自我","生人","[""<img src=\""../../test_img/12.png\"" width=150 style=\""vertical-align:middle\"">---自我"",""<img src=\""../../test_img/25.png\"" width=150 style=\""vertical-align:middle\"">---生人"",""<img src=\""../../test_img/19.png\"" width=150 style=\""vertical-align:middle\"">---朋友""]",""
"","","","","","html-keyboard-response","83","117062","0.0-11.0-0.0-0.0-0.0-1.4","null","<span style='color:GreenYellow; font-size: 70px;'>正确! </span>","null","","","","","","","","","","","","","","","","","","","","","","","","","","feedback_test"
"","","","","","psychophysics","84","118846","0.0-11.0-0.0-0.0-0.0-0.5","681","","arrowright","","","","","","","","","","","","","key","arrowright","4.1665105386417","853.3333333333334","476","classify_self","arrowleft","false","../../test_img/19.png","其他","自我","朋友","[""<img src=\""../../test_img/12.png\"" width=150 style=\""vertical-align:middle\"">---自我"",""<img src=\""../../test_img/25.png\"" width=150 style=\""vertical-align:middle\"">---生人"",""<img src=\""../../test_img/19.png\"" width=150 style=\""vertical-align:middle\"">---朋友""]",""
"","","","","","html-keyboard-response","85","119148","0.0-11.0-0.0-0.0-0.0-1.5","null","<span style='color:red; font-size: 70px;'>错误! </span>","null","","","","","","","","","","","","","","","","","","","","","","","","","","feedback_test"
"","","","","","psychophysics","86","120800","0.0-11.0-0.0-0.0-0.0-0.6","548","","arrowleft","","","","","","","","","","","","","key","arrowleft","4.165989847715721","853.3333333333334","476","classify_self","arrowleft","true","../../test_img/25.png","其他","自我","生人","[""<img src=\""../../test_img/12.png\"" width=150 style=\""vertical-align:middle\"">---自我"",""<img src=\""../../test_img/25.png\"" width=150 style=\""vertical-align:middle\"">---生人"",""<img src=\""../../test_img/19.png\"" width=150 style=\""vertical-align:middle\"">---朋友""]",""
"","","","","","html-keyboard-response","87","121116","0.0-11.0-0.0-0.0-0.0-1.6","null","<span style='color:GreenYellow; font-size: 70px;'>正确! </span>","null","","","","","","","","","","","","","","","","","","","","","","","","","","feedback_test"
"","","","","","psychophysics","88","122797","0.0-11.0-0.0-0.0-0.0-0.7","579","","arrowright","","","","","","","","","","","","","key","arrowright","4.165920398009943","853.3333333333334","476","classify_self","arrowright","true","../../test_img/19.png","自我","其他","朋友","[""<img src=\""../../test_img/12.png\"" width=150 style=\""vertical-align:middle\"">---自我"",""<img src=\""../../test_img/25.png\"" width=150 style=\""vertical-align:middle\"">---生人"",""<img src=\""../../test_img/19.png\"" width=150 style=\""vertical-align:middle\"">---朋友""]",""
"","","","","","html-keyboard-response","89","123108","0.0-11.0-0.0-0.0-0.0-1.7","null","<span style='color:GreenYellow; font-size: 70px;'>正确! </span>","null","","","","","","","","","","","","","","","","","","","","","","","","","","feedback_test"
"","","","","","psychophysics","90","124847","0.0-11.0-0.0-0.0-0.0-0.8","637","","arrowright","","","","","","","","","","","","","key","arrowright","4.166586538461511","853.3333333333334","476","classify_self","arrowright","true","../../test_img/12.png","其他","自我","自我","[""<img src=\""../../test_img/12.png\"" width=150 style=\""vertical-align:middle\"">---自我"",""<img src=\""../../test_img/25.png\"" width=150 style=\""vertical-align:middle\"">---生人"",""<img src=\""../../test_img/19.png\"" width=150 style=\""vertical-align:middle\"">---朋友""]",""
"","","","","","html-keyboard-response","91","125161","0.0-11.0-0.0-0.0-0.0-1.8","null","<span style='color:GreenYellow; font-size: 70px;'>正确! </span>","null","","","","","","","","","","","","","","","","","","","","","","","","","","feedback_test"
"","","","","","psychophysics","92","126832","0.0-11.0-0.0-0.0-0.0-0.9","568","","arrowleft","","","","","","","","","","","","","key","arrowleft","4.165999999999985","853.3333333333334","476","classify_self","arrowleft","true","../../test_img/12.png","自我","其他","自我","[""<img src=\""../../test_img/12.png\"" width=150 style=\""vertical-align:middle\"">---自我"",""<img src=\""../../test_img/25.png\"" width=150 style=\""vertical-align:middle\"">---生人"",""<img src=\""../../test_img/19.png\"" width=150 style=\""vertical-align:middle\"">---朋友""]",""
"","","","","","html-keyboard-response","93","127137","0.0-11.0-0.0-0.0-0.0-1.9","null","<span style='color:GreenYellow; font-size: 70px;'>正确! </span>","null","","","","","","","","","","","","","","","","","","","","","","","","","","feedback_test"
"","","","","","psychophysics","94","128993","0.0-11.0-0.0-0.0-0.0-0.10","754","","arrowright","","","","","","","","","","","","","key","arrowright","4.166216216216223","853.3333333333334","476","classify_self","arrowleft","false","../../test_img/19.png","其他","自我","朋友","[""<img src=\""../../test_img/12.png\"" width=150 style=\""vertical-align:middle\"">---自我"",""<img src=\""../../test_img/25.png\"" width=150 style=\""vertical-align:middle\"">---生人"",""<img src=\""../../test_img/19.png\"" width=150 style=\""vertical-align:middle\"">---朋友""]",""
"","","","","","html-keyboard-response","95","129294","0.0-11.0-0.0-0.0-0.0-1.10","null","<span style='color:red; font-size: 70px;'>错误! </span>","null","","","","","","","","","","","","","","","","","","","","","","","","","","feedback_test"
"","","","","","psychophysics","96","130970","0.0-11.0-0.0-0.0-0.0-0.11","573","","arrowright","","","","","","","","","","","","","key","arrowright","4.165835411471321","853.3333333333334","476","classify_self","arrowright","true","../../test_img/25.png","自我","其他","生人","[""<img src=\""../../test_img/12.png\"" width=150 style=\""vertical-align:middle\"">---自我"",""<img src=\""../../test_img/25.png\"" width=150 style=\""vertical-align:middle\"">---生人"",""<img src=\""../../test_img/19.png\"" width=150 style=\""vertical-align:middle\"">---朋友""]",""
"","","","","","html-keyboard-response","97","131282","0.0-11.0-0.0-0.0-0.0-1.11","null","<span style='color:GreenYellow; font-size: 70px;'>正确! </span>","null","","","","","","","","","","","","","","","","","","","","","","","","","","feedback_test"
"","","","","","psychophysics","98","133049","0.0-11.0-0.0-0.0-0.0-0.12","665","","arrowright","","","","","","","","","","","","","key","arrowright","4.166193853427869","853.3333333333334","476","classify_self","arrowright","true","../../test_img/19.png","自我","其他","朋友","[""<img src=\""../../test_img/12.png\"" width=150 style=\""vertical-align:middle\"">---自我"",""<img src=\""../../test_img/25.png\"" width=150 style=\""vertical-align:middle\"">---生人"",""<img src=\""../../test_img/19.png\"" width=150 style=\""vertical-align:middle\"">---朋友""]",""
"","","","","","html-keyboard-response","99","133361","0.0-11.0-0.0-0.0-0.0-1.12","null","<span style='color:GreenYellow; font-size: 70px;'>正确! </span>","null","","","","","","","","","","","","","","","","","","","","","","","","","","feedback_test"
"","","","","","psychophysics","100","134995","0.0-11.0-0.0-0.0-0.0-0.13","532","","arrowleft","","","","","","","","","","","","","key","arrowleft","4.166240409207161","853.3333333333334","476","classify_self","arrowleft","true","../../test_img/12.png","自我","其他","自我","[""<img src=\""../../test_img/12.png\"" width=150 style=\""vertical-align:middle\"">---自我"",""<img src=\""../../test_img/25.png\"" width=150 style=\""vertical-align:middle\"">---生人"",""<img src=\""../../test_img/19.png\"" width=150 style=\""vertical-align:middle\"">---朋友""]",""
"","","","","","html-keyboard-response","101","135307","0.0-11.0-0.0-0.0-0.0-1.13","null","<span style='color:GreenYellow; font-size: 70px;'>正确! </span>","null","","","","","","","","","","","","","","","","","","","","","","","","","","feedback_test"
"","","","","","psychophysics","102","136908","0.0-11.0-0.0-0.0-0.0-0.14","499","","arrowright","","","","","","","","","","","","","key","arrowright","4.166579634464721","853.3333333333334","476","classify_self","arrowright","true","../../test_img/25.png","自我","其他","生人","[""<img src=\""../../test_img/12.png\"" width=150 style=\""vertical-align:middle\"">---自我"",""<img src=\""../../test_img/25.png\"" width=150 style=\""vertical-align:middle\"">---生人"",""<img src=\""../../test_img/19.png\"" width=150 style=\""vertical-align:middle\"">---朋友""]",""
"","","","","","html-keyboard-response","103","137213","0.0-11.0-0.0-0.0-0.0-1.14","null","<span style='color:GreenYellow; font-size: 70px;'>正确! </span>","null","","","","","","","","","","","","","","","","","","","","","","","","","","feedback_test"
"","","","","","psychophysics","104","138943","0.0-11.0-0.0-0.0-0.0-0.15","629","","arrowright","","","","","","","","","","","","","key","arrowright","4.166183574879199","853.3333333333334","476","classify_self","arrowright","true","../../test_img/12.png","其他","自我","自我","[""<img src=\""../../test_img/12.png\"" width=150 style=\""vertical-align:middle\"">---自我"",""<img src=\""../../test_img/25.png\"" width=150 style=\""vertical-align:middle\"">---生人"",""<img src=\""../../test_img/19.png\"" width=150 style=\""vertical-align:middle\"">---朋友""]",""
"","","","","","html-keyboard-response","105","139247","0.0-11.0-0.0-0.0-0.0-1.15","null","<span style='color:GreenYellow; font-size: 70px;'>正确! </span>","null","","","","","","","","","","","","","","","","","","","","","","","","","","feedback_test"
"","","","","","psychophysics","106","140881","0.0-11.0-0.0-0.0-0.0-0.16","531","","arrowleft","","","","","","","","","","","","","key","arrowleft","4.166240409207161","853.3333333333334","476","classify_self","arrowleft","true","../../test_img/25.png","其他","自我","生人","[""<img src=\""../../test_img/12.png\"" width=150 style=\""vertical-align:middle\"">---自我"",""<img src=\""../../test_img/25.png\"" width=150 style=\""vertical-align:middle\"">---生人"",""<img src=\""../../test_img/19.png\"" width=150 style=\""vertical-align:middle\"">---朋友""]",""
"","","","","","html-keyboard-response","107","141188","0.0-11.0-0.0-0.0-0.0-1.16","null","<span style='color:GreenYellow; font-size: 70px;'>正确! </span>","null","","","","","","","","","","","","","","","","","","","","","","","","","","feedback_test"
"","","","","","psychophysics","108","143155","0.0-11.0-0.0-0.0-0.0-0.17","864","","arrowleft","","","","","","","","","","","","","key","arrowleft","4.165817409766467","853.3333333333334","476","classify_self","arrowleft","true","../../test_img/19.png","其他","自我","朋友","[""<img src=\""../../test_img/12.png\"" width=150 style=\""vertical-align:middle\"">---自我"",""<img src=\""../../test_img/25.png\"" width=150 style=\""vertical-align:middle\"">---生人"",""<img src=\""../../test_img/19.png\"" width=150 style=\""vertical-align:middle\"">---朋友""]",""
"","","","","","html-keyboard-response","109","143457","0.0-11.0-0.0-0.0-0.0-1.17","null","<span style='color:GreenYellow; font-size: 70px;'>正确! </span>","null","","","","","","","","","","","","","","","","","","","","","","","","","","feedback_test"
"","","","","","psychophysics","110","145077","0.0-11.0-0.0-0.0-0.0-0.18","520","","arrowright","","","","","","","","","","","","","key","arrowright","4.163307493540081","853.3333333333334","476","classify_self","arrowleft","false","../../test_img/12.png","自我","其他","自我","[""<img src=\""../../test_img/12.png\"" width=150 style=\""vertical-align:middle\"">---自我"",""<img src=\""../../test_img/25.png\"" width=150 style=\""vertical-align:middle\"">---生人"",""<img src=\""../../test_img/19.png\"" width=150 style=\""vertical-align:middle\"">---朋友""]",""
"","","","","","html-keyboard-response","111","145383","0.0-11.0-0.0-0.0-0.0-1.18","null","<span style='color:red; font-size: 70px;'>错误! </span>","null","","","","","","","","","","","","","","","","","","","","","","","","","","feedback_test"
"","","","","","psychophysics","112","147027","0.0-11.0-0.0-0.0-0.0-0.19","541","","arrowright","","","","","","","","","","","","","key","arrowright","4.165903307888071","853.3333333333334","476","classify_self","arrowright","true","../../test_img/25.png","自我","其他","生人","[""<img src=\""../../test_img/12.png\"" width=150 style=\""vertical-align:middle\"">---自我"",""<img src=\""../../test_img/25.png\"" width=150 style=\""vertical-align:middle\"">---生人"",""<img src=\""../../test_img/19.png\"" width=150 style=\""vertical-align:middle\"">---朋友""]",""
"","","","","","html-keyboard-response","113","147340","0.0-11.0-0.0-0.0-0.0-1.19","null","<span style='color:GreenYellow; font-size: 70px;'>正确! </span>","null","","","","","","","","","","","","","","","","","","","","","","","","","","feedback_test"
"","","","","","psychophysics","114","149029","0.0-11.0-0.0-0.0-0.0-0.20","585","","arrowleft","","","","","","","","","","","","","key","arrowleft","4.176426799007459","853.3333333333334","476","classify_self","arrowright","false","../../test_img/12.png","其他","自我","自我","[""<img src=\""../../test_img/12.png\"" width=150 style=\""vertical-align:middle\"">---自我"",""<img src=\""../../test_img/25.png\"" width=150 style=\""vertical-align:middle\"">---生人"",""<img src=\""../../test_img/19.png\"" width=150 style=\""vertical-align:middle\"">---朋友""]",""
"","","","","","html-keyboard-response","115","149331","0.0-11.0-0.0-0.0-0.0-1.20","null","<span style='color:red; font-size: 70px;'>错误! </span>","null","","","","","","","","","","","","","","","","","","","","","","","","","","feedback_test"
"","","","","","psychophysics","116","150957","0.0-11.0-0.0-0.0-0.0-0.21","525","","arrowright","","","","","","","","","","","","","key","arrowright","4.163917525773211","853.3333333333334","476","classify_self","arrowright","true","../../test_img/19.png","自我","其他","朋友","[""<img src=\""../../test_img/12.png\"" width=150 style=\""vertical-align:middle\"">---自我"",""<img src=\""../../test_img/25.png\"" width=150 style=\""vertical-align:middle\"">---生人"",""<img src=\""../../test_img/19.png\"" width=150 style=\""vertical-align:middle\"">---朋友""]",""
"","","","","","html-keyboard-response","117","151262","0.0-11.0-0.0-0.0-0.0-1.21","null","<span style='color:GreenYellow; font-size: 70px;'>正确! </span>","null","","","","","","","","","","","","","","","","","","","","","","","","","","feedback_test"
"","","","","","psychophysics","118","152984","0.0-11.0-0.0-0.0-0.0-0.22","619","","arrowright","","","","","","","","","","","","","key","arrowright","4.166504854368946","853.3333333333334","476","classify_self","arrowleft","false","../../test_img/19.png","其他","自我","朋友","[""<img src=\""../../test_img/12.png\"" width=150 style=\""vertical-align:middle\"">---自我"",""<img src=\""../../test_img/25.png\"" width=150 style=\""vertical-align:middle\"">---生人"",""<img src=\""../../test_img/19.png\"" width=150 style=\""vertical-align:middle\"">---朋友""]",""
"","","","","","html-keyboard-response","119","153299","0.0-11.0-0.0-0.0-0.0-1.22","null","<span style='color:red; font-size: 70px;'>错误! </span>","null","","","","","","","","","","","","","","","","","","","","","","","","","","feedback_test"
"","","","","","psychophysics","120","154958","0.0-11.0-0.0-0.0-0.0-0.23","556","","arrowleft","","","","","","","","","","","","","key","arrowleft","4.166246851385391","853.3333333333334","476","classify_self","arrowleft","true","../../test_img/25.png","其他","自我","生人","[""<img src=\""../../test_img/12.png\"" width=150 style=\""vertical-align:middle\"">---自我"",""<img src=\""../../test_img/25.png\"" width=150 style=\""vertical-align:middle\"">---生人"",""<img src=\""../../test_img/19.png\"" width=150 style=\""vertical-align:middle\"">---朋友""]",""
"","","","","","html-keyboard-response","121","155268","0.0-11.0-0.0-0.0-0.0-1.23","null","<span style='color:GreenYellow; font-size: 70px;'>正确! </span>","null","","","","","","","","","","","","","","","","","","","","","","","","","","feedback_test"
"","","","","","psychophysics","122","156984","0.0-11.0-0.0-0.0-0.0-0.24","615","","arrowleft","","","","","","","","","","","","","key","arrowleft","4.162195121951219","853.3333333333334","476","classify_self","arrowleft","true","../../test_img/12.png","自我","其他","自我","[""<img src=\""../../test_img/12.png\"" width=150 style=\""vertical-align:middle\"">---自我"",""<img src=\""../../test_img/25.png\"" width=150 style=\""vertical-align:middle\"">---生人"",""<img src=\""../../test_img/19.png\"" width=150 style=\""vertical-align:middle\"">---朋友""]",""
"","","","","","html-keyboard-response","123","157285","0.0-11.0-0.0-0.0-0.0-1.24","null","<span style='color:GreenYellow; font-size: 70px;'>正确! </span>","null","","","","","","","","","","","","","","","","","","","","","","","","","","feedback_test"
"","","","","","psychophysics","124","158947","0.0-11.0-0.0-0.0-0.0-0.25","558","","arrowright","","","","","","","","","","","","","key","arrowright","4.166246851385391","853.3333333333334","476","classify_self","arrowright","true","../../test_img/25.png","自我","其他","生人","[""<img src=\""../../test_img/12.png\"" width=150 style=\""vertical-align:middle\"">---自我"",""<img src=\""../../test_img/25.png\"" width=150 style=\""vertical-align:middle\"">---生人"",""<img src=\""../../test_img/19.png\"" width=150 style=\""vertical-align:middle\"">---朋友""]",""
"","","","","","html-keyboard-response","125","159262","0.0-11.0-0.0-0.0-0.0-1.25","null","<span style='color:GreenYellow; font-size: 70px;'>正确! </span>","null","","","","","","","","","","","","","","","","","","","","","","","","","","feedback_test"
"","","","","","psychophysics","126","161255","0.0-11.0-0.0-0.0-0.0-0.26","891","","arrowleft","","","","","","","","","","","","","key","arrowleft","4.166037735849081","853.3333333333334","476","classify_self","arrowleft","true","../../test_img/25.png","其他","自我","生人","[""<img src=\""../../test_img/12.png\"" width=150 style=\""vertical-align:middle\"">---自我"",""<img src=\""../../test_img/25.png\"" width=150 style=\""vertical-align:middle\"">---生人"",""<img src=\""../../test_img/19.png\"" width=150 style=\""vertical-align:middle\"">---朋友""]",""
"","","","","","html-keyboard-response","127","161563","0.0-11.0-0.0-0.0-0.0-1.26","null","<span style='color:GreenYellow; font-size: 70px;'>正确! </span>","null","","","","","","","","","","","","","","","","","","","","","","","","","","feedback_test"
"","","","","","psychophysics","128","163216","0.0-11.0-0.0-0.0-0.0-0.27","553","","arrowright","","","","","","","","","","","","","key","arrowright","4.161012658227789","853.3333333333334","476","classify_self","arrowright","true","../../test_img/12.png","其他","自我","自我","[""<img src=\""../../test_img/12.png\"" width=150 style=\""vertical-align:middle\"">---自我"",""<img src=\""../../test_img/25.png\"" width=150 style=\""vertical-align:middle\"">---生人"",""<img src=\""../../test_img/19.png\"" width=150 style=\""vertical-align:middle\"">---朋友""]",""
"","","","","","html-keyboard-response","129","163519","0.0-11.0-0.0-0.0-0.0-1.27","null","<span style='color:GreenYellow; font-size: 70px;'>正确! </span>","null","","","","","","","","","","","","","","","","","","","","","","","","","","feedback_test"
"","","","","","psychophysics","130","165571","0.0-11.0-0.0-0.0-0.0-0.28","949","","arrowleft","","","","","","","","","","","","","key","arrowleft","4.166191446028525","853.3333333333334","476","classify_self","arrowleft","true","../../test_img/19.png","其他","自我","朋友","[""<img src=\""../../test_img/12.png\"" width=150 style=\""vertical-align:middle\"">---自我"",""<img src=\""../../test_img/25.png\"" width=150 style=\""vertical-align:middle\"">---生人"",""<img src=\""../../test_img/19.png\"" width=150 style=\""vertical-align:middle\"">---朋友""]",""
"","","","","","html-keyboard-response","131","165878","0.0-11.0-0.0-0.0-0.0-1.28","null","<span style='color:GreenYellow; font-size: 70px;'>正确! </span>","null","","","","","","","","","","","","","","","","","","","","","","","","","","feedback_test"
"","","","","","psychophysics","132","167515","0.0-11.0-0.0-0.0-0.0-0.29","535","","arrowright","","","","","","","","","","","","","key","arrowright","4.1663265306122","853.3333333333334","476","classify_self","arrowright","true","../../test_img/19.png","自我","其他","朋友","[""<img src=\""../../test_img/12.png\"" width=150 style=\""vertical-align:middle\"">---自我"",""<img src=\""../../test_img/25.png\"" width=150 style=\""vertical-align:middle\"">---生人"",""<img src=\""../../test_img/19.png\"" width=150 style=\""vertical-align:middle\"">---朋友""]",""
"","","","","","html-keyboard-response","133","167819","0.0-11.0-0.0-0.0-0.0-1.29","null","<span style='color:GreenYellow; font-size: 70px;'>正确! </span>","null","","","","","","","","","","","","","","","","","","","","","","","","","","feedback_test"
"","","","","","psychophysics","134","169444","0.0-11.0-0.0-0.0-0.0-0.30","523","","arrowright","","","","","","","","","","","","","key","arrowright","4.166323907454968","853.3333333333334","476","classify_self","arrowright","true","../../test_img/12.png","其他","自我","自我","[""<img src=\""../../test_img/12.png\"" width=150 style=\""vertical-align:middle\"">---自我"",""<img src=\""../../test_img/25.png\"" width=150 style=\""vertical-align:middle\"">---生人"",""<img src=\""../../test_img/19.png\"" width=150 style=\""vertical-align:middle\"">---朋友""]",""
"","","","","","html-keyboard-response","135","169755","0.0-11.0-0.0-0.0-0.0-1.30","null","<span style='color:GreenYellow; font-size: 70px;'>正确! </span>","null","","","","","","","","","","","","","","","","","","","","","","","","","","feedback_test"
"","","","","","psychophysics","136","171334","0.0-11.0-0.0-0.0-0.0-0.31","476","","arrowleft","","","","","","","","","","","","","key","arrowleft","4.166402116402178","853.3333333333334","476","classify_self","arrowleft","true","../../test_img/12.png","自我","其他","自我","[""<img src=\""../../test_img/12.png\"" width=150 style=\""vertical-align:middle\"">---自我"",""<img src=\""../../test_img/25.png\"" width=150 style=\""vertical-align:middle\"">---生人"",""<img src=\""../../test_img/19.png\"" width=150 style=\""vertical-align:middle\"">---朋友""]",""
"","","","","","html-keyboard-response","137","171640","0.0-11.0-0.0-0.0-0.0-1.31","null","<span style='color:GreenYellow; font-size: 70px;'>正确! </span>","null","","","","","","","","","","","","","","","","","","","","","","","","","","feedback_test"
"","","","","","psychophysics","138","173303","0.0-11.0-0.0-0.0-0.0-0.32","561","","arrowleft","","","","","","","","","","","","","key","arrowleft","4.163476070528953","853.3333333333334","476","classify_self","arrowleft","true","../../test_img/25.png","其他","自我","生人","[""<img src=\""../../test_img/12.png\"" width=150 style=\""vertical-align:middle\"">---自我"",""<img src=\""../../test_img/25.png\"" width=150 style=\""vertical-align:middle\"">---生人"",""<img src=\""../../test_img/19.png\"" width=150 style=\""vertical-align:middle\"">---朋友""]",""
"","","","","","html-keyboard-response","139","173613","0.0-11.0-0.0-0.0-0.0-1.32","null","<span style='color:GreenYellow; font-size: 70px;'>正确! </span>","null","","","","","","","","","","","","","","","","","","","","","","","","","","feedback_test"
"","","","","","psychophysics","140","175243","0.0-11.0-0.0-0.0-0.0-0.33","527","","arrowright","","","","","","","","","","","","","key","arrowright","4.166153846153816","853.3333333333334","476","classify_self","arrowright","true","../../test_img/19.png","自我","其他","朋友","[""<img src=\""../../test_img/12.png\"" width=150 style=\""vertical-align:middle\"">---自我"",""<img src=\""../../test_img/25.png\"" width=150 style=\""vertical-align:middle\"">---生人"",""<img src=\""../../test_img/19.png\"" width=150 style=\""vertical-align:middle\"">---朋友""]",""
"","","","","","html-keyboard-response","141","175556","0.0-11.0-0.0-0.0-0.0-1.33","null","<span style='color:GreenYellow; font-size: 70px;'>正确! </span>","null","","","","","","","","","","","","","","","","","","","","","","","","","","feedback_test"
"","","","","","psychophysics","142","177213","0.0-11.0-0.0-0.0-0.0-0.34","556","","arrowleft","","","","","","","","","","","","","key","arrowleft","4.166246851385391","853.3333333333334","476","classify_self","arrowleft","true","../../test_img/19.png","其他","自我","朋友","[""<img src=\""../../test_img/12.png\"" width=150 style=\""vertical-align:middle\"">---自我"",""<img src=\""../../test_img/25.png\"" width=150 style=\""vertical-align:middle\"">---生人"",""<img src=\""../../test_img/19.png\"" width=150 style=\""vertical-align:middle\"">---朋友""]",""
"","","","","","html-keyboard-response","143","177515","0.0-11.0-0.0-0.0-0.0-1.34","null","<span style='color:GreenYellow; font-size: 70px;'>正确! </span>","null","","","","","","","","","","","","","","","","","","","","","","","","","","feedback_test"
"","","","","","psychophysics","144","179163","0.0-11.0-0.0-0.0-0.0-0.35","547","","arrowright","","","","","","","","","","","","","key","arrowright","4.165989847715721","853.3333333333334","476","classify_self","arrowright","true","../../test_img/25.png","自我","其他","生人","[""<img src=\""../../test_img/12.png\"" width=150 style=\""vertical-align:middle\"">---自我"",""<img src=\""../../test_img/25.png\"" width=150 style=\""vertical-align:middle\"">---生人"",""<img src=\""../../test_img/19.png\"" width=150 style=\""vertical-align:middle\"">---朋友""]",""
"","","","","","html-keyboard-response","145","179474","0.0-11.0-0.0-0.0-0.0-1.35","null","<span style='color:GreenYellow; font-size: 70px;'>正确! </span>","null","","","","","","","","","","","","","","","","","","","","","","","","","","feedback_test"
"","","","","","psychophysics","146","181177","0.0-11.0-0.0-0.0-0.0-0.36","603","","arrowright","","","","","","","","","","","","","key","arrowright","4.1660933660933805","853.3333333333334","476","classify_self","arrowleft","false","../../test_img/12.png","自我","其他","自我","[""<img src=\""../../test_img/12.png\"" width=150 style=\""vertical-align:middle\"">---自我"",""<img src=\""../../test_img/25.png\"" width=150 style=\""vertical-align:middle\"">---生人"",""<img src=\""../../test_img/19.png\"" width=150 style=\""vertical-align:middle\"">---朋友""]",""
"","","","","","html-keyboard-response","147","181489","0.0-11.0-0.0-0.0-0.0-1.36","null","<span style='color:red; font-size: 70px;'>错误! </span>","null","","","","","","","","","","","","","","","","","","","","","","","","","","feedback_test"
"","","","","","psychophysics","148","183154","0.0-11.0-0.0-0.0-0.0-0.37","564","","arrowleft","","","","","","","","","","","","","key","arrowleft","4.162814070351803","853.3333333333334","476","classify_self","arrowleft","true","../../test_img/25.png","其他","自我","生人","[""<img src=\""../../test_img/12.png\"" width=150 style=\""vertical-align:middle\"">---自我"",""<img src=\""../../test_img/25.png\"" width=150 style=\""vertical-align:middle\"">---生人"",""<img src=\""../../test_img/19.png\"" width=150 style=\""vertical-align:middle\"">---朋友""]",""
"","","","","","html-keyboard-response","149","183460","0.0-11.0-0.0-0.0-0.0-1.37","null","<span style='color:GreenYellow; font-size: 70px;'>正确! </span>","null","","","","","","","","","","","","","","","","","","","","","","","","","","feedback_test"
"","","","","","psychophysics","150","185045","0.0-11.0-0.0-0.0-0.0-0.38","484","","arrowright","","","","","","","","","","","","","key","arrowright","4.165699208443241","853.3333333333334","476","classify_self","arrowright","true","../../test_img/12.png","其他","自我","自我","[""<img src=\""../../test_img/12.png\"" width=150 style=\""vertical-align:middle\"">---自我"",""<img src=\""../../test_img/25.png\"" width=150 style=\""vertical-align:middle\"">---生人"",""<img src=\""../../test_img/19.png\"" width=150 style=\""vertical-align:middle\"">---朋友""]",""
"","","","","","html-keyboard-response","151","185357","0.0-11.0-0.0-0.0-0.0-1.38","null","<span style='color:GreenYellow; font-size: 70px;'>正确! </span>","null","","","","","","","","","","","","","","","","","","","","","","","","","","feedback_test"
"","","","","","psychophysics","152","186937","0.0-11.0-0.0-0.0-0.0-0.39","477","","arrowright","","","","","","","","","","","","","key","arrowright","4.166402116402101","853.3333333333334","476","classify_self","arrowright","true","../../test_img/25.png","自我","其他","生人","[""<img src=\""../../test_img/12.png\"" width=150 style=\""vertical-align:middle\"">---自我"",""<img src=\""../../test_img/25.png\"" width=150 style=\""vertical-align:middle\"">---生人"",""<img src=\""../../test_img/19.png\"" width=150 style=\""vertical-align:middle\"">---朋友""]",""
"","","","","","html-keyboard-response","153","187252","0.0-11.0-0.0-0.0-0.0-1.39","null","<span style='color:GreenYellow; font-size: 70px;'>正确! </span>","null","","","","","","","","","","","","","","","","","","","","","","","","","","feedback_test"
"","","","","","psychophysics","154","188937","0.0-11.0-0.0-0.0-0.0-0.40","581","","arrowleft","","","","","","","","","","","","","key","arrowleft","4.166501240694804","853.3333333333334","476","classify_self","arrowleft","true","../../test_img/19.png","其他","自我","朋友","[""<img src=\""../../test_img/12.png\"" width=150 style=\""vertical-align:middle\"">---自我"",""<img src=\""../../test_img/25.png\"" width=150 style=\""vertical-align:middle\"">---生人"",""<img src=\""../../test_img/19.png\"" width=150 style=\""vertical-align:middle\"">---朋友""]",""
"","","","","","html-keyboard-response","155","189246","0.0-11.0-0.0-0.0-0.0-1.40","null","<span style='color:GreenYellow; font-size: 70px;'>正确! </span>","null","","","","","","","","","","","","","","","","","","","","","","","","","","feedback_test"
"","","","","","psychophysics","156","190846","0.0-11.0-0.0-0.0-0.0-0.41","498","","arrowright","","","","","","","","","","","","","key","arrowright","4.162041884816815","853.3333333333334","476","classify_self","arrowright","true","../../test_img/19.png","自我","其他","朋友","[""<img src=\""../../test_img/12.png\"" width=150 style=\""vertical-align:middle\"">---自我"",""<img src=\""../../test_img/25.png\"" width=150 style=\""vertical-align:middle\"">---生人"",""<img src=\""../../test_img/19.png\"" width=150 style=\""vertical-align:middle\"">---朋友""]",""
"","","","","","html-keyboard-response","157","191151","0.0-11.0-0.0-0.0-0.0-1.41","null","<span style='color:GreenYellow; font-size: 70px;'>正确! </span>","null","","","","","","","","","","","","","","","","","","","","","","","","","","feedback_test"
"","","","","","psychophysics","158","192795","0.0-11.0-0.0-0.0-0.0-0.42","543","","arrowleft","","","","","","","","","","","","","key","arrowleft","4.16615776081422","853.3333333333334","476","classify_self","arrowleft","true","../../test_img/25.png","其他","自我","生人","[""<img src=\""../../test_img/12.png\"" width=150 style=\""vertical-align:middle\"">---自我"",""<img src=\""../../test_img/25.png\"" width=150 style=\""vertical-align:middle\"">---生人"",""<img src=\""../../test_img/19.png\"" width=150 style=\""vertical-align:middle\"">---朋友""]",""
"","","","","","html-keyboard-response","159","193108","0.0-11.0-0.0-0.0-0.0-1.42","null","<span style='color:GreenYellow; font-size: 70px;'>正确! </span>","null","","","","","","","","","","","","","","","","","","","","","","","","","","feedback_test"
"","","","","","psychophysics","160","194747","0.0-11.0-0.0-0.0-0.0-0.43","538","","arrowright","","","","","","","","","","","","","key","arrowright","4.166581632653031","853.3333333333334","476","classify_self","arrowleft","false","../../test_img/12.png","自我","其他","自我","[""<img src=\""../../test_img/12.png\"" width=150 style=\""vertical-align:middle\"">---自我"",""<img src=\""../../test_img/25.png\"" width=150 style=\""vertical-align:middle\"">---生人"",""<img src=\""../../test_img/19.png\"" width=150 style=\""vertical-align:middle\"">---朋友""]",""
"","","","","","html-keyboard-response","161","195063","0.0-11.0-0.0-0.0-0.0-1.43","null","<span style='color:red; font-size: 70px;'>错误! </span>","null","","","","","","","","","","","","","","","","","","","","","","","","","","feedback_test"
"","","","","","psychophysics","162","196724","0.0-11.0-0.0-0.0-0.0-0.44","560","","arrowright","","","","","","","","","","","","","key","arrowright","4.166498740554171","853.3333333333334","476","classify_self","arrowright","true","../../test_img/25.png","自我","其他","生人","[""<img src=\""../../test_img/12.png\"" width=150 style=\""vertical-align:middle\"">---自我"",""<img src=\""../../test_img/25.png\"" width=150 style=\""vertical-align:middle\"">---生人"",""<img src=\""../../test_img/19.png\"" width=150 style=\""vertical-align:middle\"">---朋友""]",""
"","","","","","html-keyboard-response","163","197025","0.0-11.0-0.0-0.0-0.0-1.44","null","<span style='color:GreenYellow; font-size: 70px;'>正确! </span>","null","","","","","","","","","","","","","","","","","","","","","","","","","","feedback_test"
"","","","","","psychophysics","164","198668","0.0-11.0-0.0-0.0-0.0-0.45","542","","arrowright","","","","","","","","","","","","","key","arrowright","4.16310432569976","853.3333333333334","476","classify_self","arrowright","true","../../test_img/19.png","自我","其他","朋友","[""<img src=\""../../test_img/12.png\"" width=150 style=\""vertical-align:middle\"">---自我"",""<img src=\""../../test_img/25.png\"" width=150 style=\""vertical-align:middle\"">---生人"",""<img src=\""../../test_img/19.png\"" width=150 style=\""vertical-align:middle\"">---朋友""]",""
"","","","","","html-keyboard-response","165","198980","0.0-11.0-0.0-0.0-0.0-1.45","null","<span style='color:GreenYellow; font-size: 70px;'>正确! </span>","null","","","","","","","","","","","","","","","","","","","","","","","","","","feedback_test"
"","","","","","psychophysics","166","200633","0.0-11.0-0.0-0.0-0.0-0.46","552","","arrowleft","","","","","","","","","","","","","key","arrowleft","4.176649746192908","853.3333333333334","476","classify_self","arrowleft","true","../../test_img/19.png","其他","自我","朋友","[""<img src=\""../../test_img/12.png\"" width=150 style=\""vertical-align:middle\"">---自我"",""<img src=\""../../test_img/25.png\"" width=150 style=\""vertical-align:middle\"">---生人"",""<img src=\""../../test_img/19.png\"" width=150 style=\""vertical-align:middle\"">---朋友""]",""
"","","","","","html-keyboard-response","167","200948","0.0-11.0-0.0-0.0-0.0-1.46","null","<span style='color:GreenYellow; font-size: 70px;'>正确! </span>","null","","","","","","","","","","","","","","","","","","","","","","","","","","feedback_test"
"","","","","","psychophysics","168","202608","0.0-11.0-0.0-0.0-0.0-0.47","559","","arrowright","","","","","","","","","","","","","key","arrowright","4.166498740554171","853.3333333333334","476","classify_self","arrowright","true","../../test_img/12.png","其他","自我","自我","[""<img src=\""../../test_img/12.png\"" width=150 style=\""vertical-align:middle\"">---自我"",""<img src=\""../../test_img/25.png\"" width=150 style=\""vertical-align:middle\"">---生人"",""<img src=\""../../test_img/19.png\"" width=150 style=\""vertical-align:middle\"">---朋友""]",""
"","","","","","html-keyboard-response","169","202921","0.0-11.0-0.0-0.0-0.0-1.47","null","<span style='color:GreenYellow; font-size: 70px;'>正确! </span>","null","","","","","","","","","","","","","","","","","","","","","","","","","","feedback_test"
"","","","","","psychophysics","170","204531","0.0-11.0-0.0-0.0-0.0-0.48","507","","arrowright","","","","","","","","","","","","","key","arrowright","4.177604166666697","853.3333333333334","476","classify_self","arrowright","true","../../test_img/19.png","自我","其他","朋友","[""<img src=\""../../test_img/12.png\"" width=150 style=\""vertical-align:middle\"">---自我"",""<img src=\""../../test_img/25.png\"" width=150 style=\""vertical-align:middle\"">---生人"",""<img src=\""../../test_img/19.png\"" width=150 style=\""vertical-align:middle\"">---朋友""]",""
"","","","","","html-keyboard-response","171","204832","0.0-11.0-0.0-0.0-0.0-1.48","null","<span style='color:GreenYellow; font-size: 70px;'>正确! </span>","null","","","","","","","","","","","","","","","","","","","","","","","","","","feedback_test"
"","","","","","psychophysics","172","206484","0.0-11.0-0.0-0.0-0.0-0.49","550","","arrowleft","","","","","","","","","","","","","key","arrowleft","4.165316455696247","853.3333333333334","476","classify_self","arrowright","false","../../test_img/12.png","其他","自我","自我","[""<img src=\""../../test_img/12.png\"" width=150 style=\""vertical-align:middle\"">---自我"",""<img src=\""../../test_img/25.png\"" width=150 style=\""vertical-align:middle\"">---生人"",""<img src=\""../../test_img/19.png\"" width=150 style=\""vertical-align:middle\"">---朋友""]",""
"","","","","","html-keyboard-response","173","206791","0.0-11.0-0.0-0.0-0.0-1.49","null","<span style='color:red; font-size: 70px;'>错误! </span>","null","","","","","","","","","","","","","","","","","","","","","","","","","","feedback_test"
"","","","","","psychophysics","174","208485","0.0-11.0-0.0-0.0-0.0-0.50","594","","arrowleft","","","","","","","","","","","","","key","arrowleft","4.166419753086405","853.3333333333334","476","classify_self","arrowleft","true","../../test_img/19.png","其他","自我","朋友","[""<img src=\""../../test_img/12.png\"" width=150 style=\""vertical-align:middle\"">---自我"",""<img src=\""../../test_img/25.png\"" width=150 style=\""vertical-align:middle\"">---生人"",""<img src=\""../../test_img/19.png\"" width=150 style=\""vertical-align:middle\"">---朋友""]",""
"","","","","","html-keyboard-response","175","208796","0.0-11.0-0.0-0.0-0.0-1.50","null","<span style='color:GreenYellow; font-size: 70px;'>正确! </span>","null","","","","","","","","","","","","","","","","","","","","","","","","","","feedback_test"
"","","","","","psychophysics","176","210434","0.0-11.0-0.0-0.0-0.0-0.51","535","","arrowright","","","","","","","","","","","","","key","arrowright","4.165816326530612","853.3333333333334","476","classify_self","arrowright","true","../../test_img/25.png","自我","其他","生人","[""<img src=\""../../test_img/12.png\"" width=150 style=\""vertical-align:middle\"">---自我"",""<img src=\""../../test_img/25.png\"" width=150 style=\""vertical-align:middle\"">---生人"",""<img src=\""../../test_img/19.png\"" width=150 style=\""vertical-align:middle\"">---朋友""]",""
"","","","","","html-keyboard-response","177","210739","0.0-11.0-0.0-0.0-0.0-1.51","null","<span style='color:GreenYellow; font-size: 70px;'>正确! </span>","null","","","","","","","","","","","","","","","","","","","","","","","","","","feedback_test"
"","","","","","psychophysics","178","212626","0.0-11.0-0.0-0.0-0.0-0.52","786","","arrowleft","","","","","","","","","","","","","key","arrowleft","4.166371681415891","853.3333333333334","476","classify_self","arrowleft","true","../../test_img/12.png","自我","其他","自我","[""<img src=\""../../test_img/12.png\"" width=150 style=\""vertical-align:middle\"">---自我"",""<img src=\""../../test_img/25.png\"" width=150 style=\""vertical-align:middle\"">---生人"",""<img src=\""../../test_img/19.png\"" width=150 style=\""vertical-align:middle\"">---朋友""]",""
"","","","","","html-keyboard-response","179","212939","0.0-11.0-0.0-0.0-0.0-1.52","null","<span style='color:GreenYellow; font-size: 70px;'>正确! </span>","null","","","","","","","","","","","","","","","","","","","","","","","","","","feedback_test"
"","","","","","psychophysics","180","214590","0.0-11.0-0.0-0.0-0.0-0.53","549","","arrowleft","","","","","","","","","","","","","key","arrowleft","4.163705583756345","853.3333333333334","476","classify_self","arrowleft","true","../../test_img/25.png","其他","自我","生人","[""<img src=\""../../test_img/12.png\"" width=150 style=\""vertical-align:middle\"">---自我"",""<img src=\""../../test_img/25.png\"" width=150 style=\""vertical-align:middle\"">---生人"",""<img src=\""../../test_img/19.png\"" width=150 style=\""vertical-align:middle\"">---朋友""]",""
"","","","","","html-keyboard-response","181","214892","0.0-11.0-0.0-0.0-0.0-1.53","null","<span style='color:GreenYellow; font-size: 70px;'>正确! </span>","null","","","","","","","","","","","","","","","","","","","","","","","","","","feedback_test"
"","","","","","html-keyboard-response","182","215508","0.0-11.0-0.0-0.0-1.0","615","<style>.context{color:white; font-size: 35px; line-height:40px}</style>                          <div><p class='context'>您正确回答了83% 的试次。</p><p class='context'>您的平均反应时为578毫秒。</p><p class='context'>请按任意键进入休息</p></div>","arrowright","","","","","","","","","","","","","","","","","","","","","","","","","",""
"","","","","","html-button-response","183","217086","0.0-11.0-0.0-0.0-2.0","1578","
                  <p>自我图形分类任务中，您还剩余4组实验</p>
                  <p>现在是休息时间，当您结束休息后，您可以点击 结束休息 按钮 继续</p>
                  <p>建议休息时间还剩余<span id=""iii"">60</span>秒</p>","0","","","","","","","","","","","","","","","","","","","","","","","","","",""
"","","","","","psychophysics","184","218804","0.0-11.0-0.0-0.0-0.1-0.54","616","","arrowleft","","","","","","","","","","","","","key","arrowleft","4.1765853658537155","853.3333333333334","476","classify_self","arrowleft","true","../../test_img/12.png","自我","其他","自我","[""<img src=\""../../test_img/12.png\"" width=150 style=\""vertical-align:middle\"">---自我"",""<img src=\""../../test_img/25.png\"" width=150 style=\""vertical-align:middle\"">---生人"",""<img src=\""../../test_img/19.png\"" width=150 style=\""vertical-align:middle\"">---朋友""]",""
"","","","","","html-keyboard-response","185","219107","0.0-11.0-0.0-0.0-0.1-1.54","null","<span style='color:GreenYellow; font-size: 70px;'>正确! </span>","null","","","","","","","","","","","","","","","","","","","","","","","","","","feedback_test"
"","","","","","psychophysics","186","220776","0.0-11.0-0.0-0.0-0.1-0.55","567","","arrowright","","","","","","","","","","","","","key","arrowright","4.165914786967375","853.3333333333334","476","classify_self","arrowright","true","../../test_img/25.png","自我","其他","生人","[""<img src=\""../../test_img/12.png\"" width=150 style=\""vertical-align:middle\"">---自我"",""<img src=\""../../test_img/25.png\"" width=150 style=\""vertical-align:middle\"">---生人"",""<img src=\""../../test_img/19.png\"" width=150 style=\""vertical-align:middle\"">---朋友""]",""
"","","","","","html-keyboard-response","187","221079","0.0-11.0-0.0-0.0-0.1-1.55","null","<span style='color:GreenYellow; font-size: 70px;'>正确! </span>","null","","","","","","","","","","","","","","","","","","","","","","","","","","feedback_test"
"","","","","","psychophysics","188","222695","0.0-11.0-0.0-0.0-0.1-0.56","514","","arrowleft","","","","","","","","","","","","","key","arrowleft","4.166666666666667","853.3333333333334","476","classify_self","arrowleft","true","../../test_img/25.png","其他","自我","生人","[""<img src=\""../../test_img/12.png\"" width=150 style=\""vertical-align:middle\"">---自我"",""<img src=\""../../test_img/25.png\"" width=150 style=\""vertical-align:middle\"">---生人"",""<img src=\""../../test_img/19.png\"" width=150 style=\""vertical-align:middle\"">---朋友""]",""
"","","","","","html-keyboard-response","189","222996","0.0-11.0-0.0-0.0-0.1-1.56","null","<span style='color:GreenYellow; font-size: 70px;'>正确! </span>","null","","","","","","","","","","","","","","","","","","","","","","","","","","feedback_test"
"","","","","","psychophysics","190","224596","0.0-11.0-0.0-0.0-0.1-0.57","498","","arrowleft","","","","","","","","","","","","","key","arrowleft","4.161518324607361","853.3333333333334","476","classify_self","arrowleft","true","../../test_img/19.png","其他","自我","朋友","[""<img src=\""../../test_img/12.png\"" width=150 style=\""vertical-align:middle\"">---自我"",""<img src=\""../../test_img/25.png\"" width=150 style=\""vertical-align:middle\"">---生人"",""<img src=\""../../test_img/19.png\"" width=150 style=\""vertical-align:middle\"">---朋友""]",""
"","","","","","html-keyboard-response","191","224897","0.0-11.0-0.0-0.0-0.1-1.57","null","<span style='color:GreenYellow; font-size: 70px;'>正确! </span>","null","","","","","","","","","","","","","","","","","","","","","","","","","","feedback_test"
"","","","","","psychophysics","192","226560","0.0-11.0-0.0-0.0-0.1-0.58","562","","arrowright","","","","","","","","","","","","","key","arrowright","4.166246851385391","853.3333333333334","476","classify_self","arrowright","true","../../test_img/19.png","自我","其他","朋友","[""<img src=\""../../test_img/12.png\"" width=150 style=\""vertical-align:middle\"">---自我"",""<img src=\""../../test_img/25.png\"" width=150 style=\""vertical-align:middle\"">---生人"",""<img src=\""../../test_img/19.png\"" width=150 style=\""vertical-align:middle\"">---朋友""]",""
"","","","","","html-keyboard-response","193","226869","0.0-11.0-0.0-0.0-0.1-1.58","null","<span style='color:GreenYellow; font-size: 70px;'>正确! </span>","null","","","","","","","","","","","","","","","","","","","","","","","","","","feedback_test"
"","","","","","psychophysics","194","228618","0.0-11.0-0.0-0.0-0.1-0.59","647","","arrowright","","","","","","","","","","","","","key","arrowright","4.165311004784703","853.3333333333334","476","classify_self","arrowright","true","../../test_img/12.png","其他","自我","自我","[""<img src=\""../../test_img/12.png\"" width=150 style=\""vertical-align:middle\"">---自我"",""<img src=\""../../test_img/25.png\"" width=150 style=\""vertical-align:middle\"">---生人"",""<img src=\""../../test_img/19.png\"" width=150 style=\""vertical-align:middle\"">---朋友""]",""
"","","","","","html-keyboard-response","195","228932","0.0-11.0-0.0-0.0-0.1-1.59","null","<span style='color:GreenYellow; font-size: 70px;'>正确! </span>","null","","","","","","","","","","","","","","","","","","","","","","","","","","feedback_test"
"","","","","","psychophysics","196","230557","0.0-11.0-0.0-0.0-0.1-0.60","523","","arrowright","","","","","","","","","","","","","key","arrowright","4.166066838046213","853.3333333333334","476","classify_self","arrowright","true","../../test_img/25.png","自我","其他","生人","[""<img src=\""../../test_img/12.png\"" width=150 style=\""vertical-align:middle\"">---自我"",""<img src=\""../../test_img/25.png\"" width=150 style=\""vertical-align:middle\"">---生人"",""<img src=\""../../test_img/19.png\"" width=150 style=\""vertical-align:middle\"">---朋友""]",""
"","","","","","html-keyboard-response","197","230870","0.0-11.0-0.0-0.0-0.1-1.60","null","<span style='color:GreenYellow; font-size: 70px;'>正确! </span>","null","","","","","","","","","","","","","","","","","","","","","","","","","","feedback_test"
"","","","","","psychophysics","198","232497","0.0-11.0-0.0-0.0-0.1-0.61","525","","arrowleft","","","","","","","","","","","","","key","arrowleft","4.161696658097746","853.3333333333334","476","classify_self","arrowleft","true","../../test_img/12.png","自我","其他","自我","[""<img src=\""../../test_img/12.png\"" width=150 style=\""vertical-align:middle\"">---自我"",""<img src=\""../../test_img/25.png\"" width=150 style=\""vertical-align:middle\"">---生人"",""<img src=\""../../test_img/19.png\"" width=150 style=\""vertical-align:middle\"">---朋友""]",""
"","","","","","html-keyboard-response","199","232798","0.0-11.0-0.0-0.0-0.1-1.61","null","<span style='color:GreenYellow; font-size: 70px;'>正确! </span>","null","","","","","","","","","","","","","","","","","","","","","","","","","","feedback_test"
"","","","","","psychophysics","200","234406","0.0-11.0-0.0-0.0-0.1-0.62","506","","arrowright","","","","","","","","","","","","","key","arrowright","4.165714285714255","853.3333333333334","476","classify_self","arrowright","true","../../test_img/19.png","自我","其他","朋友","[""<img src=\""../../test_img/12.png\"" width=150 style=\""vertical-align:middle\"">---自我"",""<img src=\""../../test_img/25.png\"" width=150 style=\""vertical-align:middle\"">---生人"",""<img src=\""../../test_img/19.png\"" width=150 style=\""vertical-align:middle\"">---朋友""]",""
"","","","","","html-keyboard-response","201","234712","0.0-11.0-0.0-0.0-0.1-1.62","null","<span style='color:GreenYellow; font-size: 70px;'>正确! </span>","null","","","","","","","","","","","","","","","","","","","","","","","","","","feedback_test"
"","","","","","psychophysics","202","236357","0.0-11.0-0.0-0.0-0.1-0.63","544","","arrowleft","","","","","","","","","","","","","key","arrowleft","4.165903307888071","853.3333333333334","476","classify_self","arrowleft","true","../../test_img/25.png","其他","自我","生人","[""<img src=\""../../test_img/12.png\"" width=150 style=\""vertical-align:middle\"">---自我"",""<img src=\""../../test_img/25.png\"" width=150 style=\""vertical-align:middle\"">---生人"",""<img src=\""../../test_img/19.png\"" width=150 style=\""vertical-align:middle\"">---朋友""]",""
"","","","","","html-keyboard-response","203","236670","0.0-11.0-0.0-0.0-0.1-1.63","null","<span style='color:GreenYellow; font-size: 70px;'>正确! </span>","null","","","","","","","","","","","","","","","","","","","","","","","","","","feedback_test"
"","","","","","psychophysics","204","238311","0.0-11.0-0.0-0.0-0.1-0.64","540","","arrowright","","","","","","","","","","","","","key","arrowright","4.161989795918367","853.3333333333334","476","classify_self","arrowright","true","../../test_img/12.png","其他","自我","自我","[""<img src=\""../../test_img/12.png\"" width=150 style=\""vertical-align:middle\"">---自我"",""<img src=\""../../test_img/25.png\"" width=150 style=\""vertical-align:middle\"">---生人"",""<img src=\""../../test_img/19.png\"" width=150 style=\""vertical-align:middle\"">---朋友""]",""
"","","","","","html-keyboard-response","205","238628","0.0-11.0-0.0-0.0-0.1-1.64","null","<span style='color:GreenYellow; font-size: 70px;'>正确! </span>","null","","","","","","","","","","","","","","","","","","","","","","","","","","feedback_test"
"","","","","","psychophysics","206","240285","0.0-11.0-0.0-0.0-0.1-0.65","556","","arrowleft","","","","","","","","","","","","","key","arrowleft","4.161111111111082","853.3333333333334","476","classify_self","arrowleft","true","../../test_img/19.png","其他","自我","朋友","[""<img src=\""../../test_img/12.png\"" width=150 style=\""vertical-align:middle\"">---自我"",""<img src=\""../../test_img/25.png\"" width=150 style=\""vertical-align:middle\"">---生人"",""<img src=\""../../test_img/19.png\"" width=150 style=\""vertical-align:middle\"">---朋友""]",""
"","","","","","html-keyboard-response","207","240585","0.0-11.0-0.0-0.0-0.1-1.65","null","<span style='color:GreenYellow; font-size: 70px;'>正确! </span>","null","","","","","","","","","","","","","","","","","","","","","","","","","","feedback_test"
"","","","","","psychophysics","208","242206","0.0-11.0-0.0-0.0-0.1-0.66","519","","arrowleft","","","","","","","","","","","","","key","arrowleft","4.165979381443284","853.3333333333334","476","classify_self","arrowleft","true","../../test_img/25.png","其他","自我","生人","[""<img src=\""../../test_img/12.png\"" width=150 style=\""vertical-align:middle\"">---自我"",""<img src=\""../../test_img/25.png\"" width=150 style=\""vertical-align:middle\"">---生人"",""<img src=\""../../test_img/19.png\"" width=150 style=\""vertical-align:middle\"">---朋友""]",""
"","","","","","html-keyboard-response","209","242519","0.0-11.0-0.0-0.0-0.1-1.66","null","<span style='color:GreenYellow; font-size: 70px;'>正确! </span>","null","","","","","","","","","","","","","","","","","","","","","","","","","","feedback_test"
"","","","","","psychophysics","210","244207","0.0-11.0-0.0-0.0-0.1-0.67","587","","arrowleft","","","","","","","","","","","","","key","arrowleft","4.162034739454137","853.3333333333334","476","classify_self","arrowright","false","../../test_img/12.png","其他","自我","自我","[""<img src=\""../../test_img/12.png\"" width=150 style=\""vertical-align:middle\"">---自我"",""<img src=\""../../test_img/25.png\"" width=150 style=\""vertical-align:middle\"">---生人"",""<img src=\""../../test_img/19.png\"" width=150 style=\""vertical-align:middle\"">---朋友""]",""
"","","","","","html-keyboard-response","211","244518","0.0-11.0-0.0-0.0-0.1-1.67","null","<span style='color:red; font-size: 70px;'>错误! </span>","null","","","","","","","","","","","","","","","","","","","","","","","","","","feedback_test"
"","","","","","psychophysics","212","246471","0.0-11.0-0.0-0.0-0.1-0.68","851","","arrowleft","","","","","","","","","","","","","key","arrowleft","4.166452991452979","853.3333333333334","476","classify_self","arrowleft","true","../../test_img/12.png","自我","其他","自我","[""<img src=\""../../test_img/12.png\"" width=150 style=\""vertical-align:middle\"">---自我"",""<img src=\""../../test_img/25.png\"" width=150 style=\""vertical-align:middle\"">---生人"",""<img src=\""../../test_img/19.png\"" width=150 style=\""vertical-align:middle\"">---朋友""]",""
"","","","","","html-keyboard-response","213","246780","0.0-11.0-0.0-0.0-0.1-1.68","null","<span style='color:GreenYellow; font-size: 70px;'>正确! </span>","null","","","","","","","","","","","","","","","","","","","","","","","","","","feedback_test"
"","","","","","psychophysics","214","248392","0.0-11.0-0.0-0.0-0.1-0.69","510","","arrowleft","","","","","","","","","","","","","key","arrowleft","4.166839378238402","853.3333333333334","476","classify_self","arrowleft","true","../../test_img/19.png","其他","自我","朋友","[""<img src=\""../../test_img/12.png\"" width=150 style=\""vertical-align:middle\"">---自我"",""<img src=\""../../test_img/25.png\"" width=150 style=\""vertical-align:middle\"">---生人"",""<img src=\""../../test_img/19.png\"" width=150 style=\""vertical-align:middle\"">---朋友""]",""
"","","","","","html-keyboard-response","215","248706","0.0-11.0-0.0-0.0-0.1-1.69","null","<span style='color:GreenYellow; font-size: 70px;'>正确! </span>","null","","","","","","","","","","","","","","","","","","","","","","","","","","feedback_test"
"","","","","","psychophysics","216","250346","0.0-11.0-0.0-0.0-0.1-0.70","539","","arrowright","","","","","","","","","","","","","key","arrowright","4.16352040816328","853.3333333333334","476","classify_self","arrowright","true","../../test_img/25.png","自我","其他","生人","[""<img src=\""../../test_img/12.png\"" width=150 style=\""vertical-align:middle\"">---自我"",""<img src=\""../../test_img/25.png\"" width=150 style=\""vertical-align:middle\"">---生人"",""<img src=\""../../test_img/19.png\"" width=150 style=\""vertical-align:middle\"">---朋友""]",""
"","","","","","html-keyboard-response","217","250659","0.0-11.0-0.0-0.0-0.1-1.70","null","<span style='color:GreenYellow; font-size: 70px;'>正确! </span>","null","","","","","","","","","","","","","","","","","","","","","","","","","","feedback_test"
"","","","","","psychophysics","218","252362","0.0-11.0-0.0-0.0-0.1-0.71","601","","arrowright","","","","","","","","","","","","","key","arrowright","4.161916461916448","853.3333333333334","476","classify_self","arrowright","true","../../test_img/19.png","自我","其他","朋友","[""<img src=\""../../test_img/12.png\"" width=150 style=\""vertical-align:middle\"">---自我"",""<img src=\""../../test_img/25.png\"" width=150 style=\""vertical-align:middle\"">---生人"",""<img src=\""../../test_img/19.png\"" width=150 style=\""vertical-align:middle\"">---朋友""]",""
"","","","","","html-keyboard-response","219","252663","0.0-11.0-0.0-0.0-0.1-1.71","null","<span style='color:GreenYellow; font-size: 70px;'>正确! </span>","null","","","","","","","","","","","","","","","","","","","","","","","","","","feedback_test"
"","","","","","psychophysics","220","254358","0.0-11.0-0.0-0.0-0.1-0.72","593","","arrowright","","","","","","","","","","","","","key","arrowright","4.164197530864198","853.3333333333334","476","classify_self","arrowright","true","../../test_img/19.png","自我","其他","朋友","[""<img src=\""../../test_img/12.png\"" width=150 style=\""vertical-align:middle\"">---自我"",""<img src=\""../../test_img/25.png\"" width=150 style=\""vertical-align:middle\"">---生人"",""<img src=\""../../test_img/19.png\"" width=150 style=\""vertical-align:middle\"">---朋友""]",""
"","","","","","html-keyboard-response","221","254667","0.0-11.0-0.0-0.0-0.1-1.72","null","<span style='color:GreenYellow; font-size: 70px;'>正确! </span>","null","","","","","","","","","","","","","","","","","","","","","","","","","","feedback_test"
"","","","","","psychophysics","222","256300","0.0-11.0-0.0-0.0-0.1-0.73","531","","arrowright","","","","","","","","","","","","","key","arrowright","4.165984654731517","853.3333333333334","476","classify_self","arrowright","true","../../test_img/25.png","自我","其他","生人","[""<img src=\""../../test_img/12.png\"" width=150 style=\""vertical-align:middle\"">---自我"",""<img src=\""../../test_img/25.png\"" width=150 style=\""vertical-align:middle\"">---生人"",""<img src=\""../../test_img/19.png\"" width=150 style=\""vertical-align:middle\"">---朋友""]",""
"","","","","","html-keyboard-response","223","256600","0.0-11.0-0.0-0.0-0.1-1.73","null","<span style='color:GreenYellow; font-size: 70px;'>正确! </span>","null","","","","","","","","","","","","","","","","","","","","","","","","","","feedback_test"
"","","","","","psychophysics","224","258532","0.0-11.0-0.0-0.0-0.1-0.74","831","","arrowright","","","","","","","","","","","","","key","arrowright","4.1621212121212","853.3333333333334","476","classify_self","arrowright","true","../../test_img/12.png","其他","自我","自我","[""<img src=\""../../test_img/12.png\"" width=150 style=\""vertical-align:middle\"">---自我"",""<img src=\""../../test_img/25.png\"" width=150 style=\""vertical-align:middle\"">---生人"",""<img src=\""../../test_img/19.png\"" width=150 style=\""vertical-align:middle\"">---朋友""]",""
"","","","","","html-keyboard-response","225","258843","0.0-11.0-0.0-0.0-0.1-1.74","null","<span style='color:GreenYellow; font-size: 70px;'>正确! </span>","null","","","","","","","","","","","","","","","","","","","","","","","","","","feedback_test"
"","","","","","psychophysics","226","260781","0.0-11.0-0.0-0.0-0.1-0.75","834","","arrowleft","","","","","","","","","","","","","key","arrowleft","4.165948275862069","853.3333333333334","476","classify_self","arrowleft","true","../../test_img/19.png","其他","自我","朋友","[""<img src=\""../../test_img/12.png\"" width=150 style=\""vertical-align:middle\"">---自我"",""<img src=\""../../test_img/25.png\"" width=150 style=\""vertical-align:middle\"">---生人"",""<img src=\""../../test_img/19.png\"" width=150 style=\""vertical-align:middle\"">---朋友""]",""
"","","","","","html-keyboard-response","227","261090","0.0-11.0-0.0-0.0-0.1-1.75","null","<span style='color:GreenYellow; font-size: 70px;'>正确! </span>","null","","","","","","","","","","","","","","","","","","","","","","","","","","feedback_test"
"","","","","","psychophysics","228","263330","0.0-11.0-0.0-0.0-0.1-0.76","1138","","arrowleft","","","","","","","","","","","","","key","arrowleft","4.166108007448811","853.3333333333334","476","classify_self","arrowleft","true","../../test_img/25.png","其他","自我","生人","[""<img src=\""../../test_img/12.png\"" width=150 style=\""vertical-align:middle\"">---自我"",""<img src=\""../../test_img/25.png\"" width=150 style=\""vertical-align:middle\"">---生人"",""<img src=\""../../test_img/19.png\"" width=150 style=\""vertical-align:middle\"">---朋友""]",""
"","","","","","html-keyboard-response","229","263633","0.0-11.0-0.0-0.0-0.1-1.76","null","<span style='color:GreenYellow; font-size: 70px;'>正确! </span>","null","","","","","","","","","","","","","","","","","","","","","","","","","","feedback_test"
"","","","","","psychophysics","230","265404","0.0-11.0-0.0-0.0-0.1-0.77","670","","arrowleft","","","","","","","","","","","","","key","arrowleft","4.163593380614684","853.3333333333334","476","classify_self","arrowleft","true","../../test_img/12.png","自我","其他","自我","[""<img src=\""../../test_img/12.png\"" width=150 style=\""vertical-align:middle\"">---自我"",""<img src=\""../../test_img/25.png\"" width=150 style=\""vertical-align:middle\"">---生人"",""<img src=\""../../test_img/19.png\"" width=150 style=\""vertical-align:middle\"">---朋友""]",""
"","","","","","html-keyboard-response","231","265711","0.0-11.0-0.0-0.0-0.1-1.77","null","<span style='color:GreenYellow; font-size: 70px;'>正确! </span>","null","","","","","","","","","","","","","","","","","","","","","","","","","","feedback_test"
"","","","","","psychophysics","232","267395","0.0-11.0-0.0-0.0-0.1-0.78","582","","arrowleft","","","","","","","","","","","","","key","arrowleft","4.162437810945245","853.3333333333334","476","classify_self","arrowleft","true","../../test_img/19.png","其他","自我","朋友","[""<img src=\""../../test_img/12.png\"" width=150 style=\""vertical-align:middle\"">---自我"",""<img src=\""../../test_img/25.png\"" width=150 style=\""vertical-align:middle\"">---生人"",""<img src=\""../../test_img/19.png\"" width=150 style=\""vertical-align:middle\"">---朋友""]",""
"","","","","","html-keyboard-response","233","267708","0.0-11.0-0.0-0.0-0.1-1.78","null","<span style='color:GreenYellow; font-size: 70px;'>正确! </span>","null","","","","","","","","","","","","","","","","","","","","","","","","","","feedback_test"
"","","","","","psychophysics","234","269347","0.0-11.0-0.0-0.0-0.1-0.79","537","","arrowleft","","","","","","","","","","","","","key","arrowleft","4.165816326530612","853.3333333333334","476","classify_self","arrowleft","true","../../test_img/25.png","其他","自我","生人","[""<img src=\""../../test_img/12.png\"" width=150 style=\""vertical-align:middle\"">---自我"",""<img src=\""../../test_img/25.png\"" width=150 style=\""vertical-align:middle\"">---生人"",""<img src=\""../../test_img/19.png\"" width=150 style=\""vertical-align:middle\"">---朋友""]",""
"","","","","","html-keyboard-response","235","269648","0.0-11.0-0.0-0.0-0.1-1.79","null","<span style='color:GreenYellow; font-size: 70px;'>正确! </span>","null","","","","","","","","","","","","","","","","","","","","","","","","","","feedback_test"
"","","","","","psychophysics","236","271312","0.0-11.0-0.0-0.0-0.1-0.80","562","","arrowright","","","","","","","","","","","","","key","arrowright","4.162216624685197","853.3333333333334","476","classify_self","arrowright","true","../../test_img/25.png","自我","其他","生人","[""<img src=\""../../test_img/12.png\"" width=150 style=\""vertical-align:middle\"">---自我"",""<img src=\""../../test_img/25.png\"" width=150 style=\""vertical-align:middle\"">---生人"",""<img src=\""../../test_img/19.png\"" width=150 style=\""vertical-align:middle\"">---朋友""]",""
"","","","","","html-keyboard-response","237","271622","0.0-11.0-0.0-0.0-0.1-1.80","null","<span style='color:GreenYellow; font-size: 70px;'>正确! </span>","null","","","","","","","","","","","","","","","","","","","","","","","","","","feedback_test"
"","","","","","psychophysics","238","273494","0.0-11.0-0.0-0.0-0.1-0.81","769","","arrowright","","","","","","","","","","","","","key","arrowright","4.166517857142805","853.3333333333334","476","classify_self","arrowright","true","../../test_img/19.png","自我","其他","朋友","[""<img src=\""../../test_img/12.png\"" width=150 style=\""vertical-align:middle\"">---自我"",""<img src=\""../../test_img/25.png\"" width=150 style=\""vertical-align:middle\"">---生人"",""<img src=\""../../test_img/19.png\"" width=150 style=\""vertical-align:middle\"">---朋友""]",""
"","","","","","html-keyboard-response","239","273810","0.0-11.0-0.0-0.0-0.1-1.81","null","<span style='color:GreenYellow; font-size: 70px;'>正确! </span>","null","","","","","","","","","","","","","","","","","","","","","","","","","","feedback_test"
"","","","","","psychophysics","240","275718","0.0-11.0-0.0-0.0-0.1-0.82","806","","arrowright","","","","","","","","","","","","","key","arrowright","4.166083150984607","853.3333333333334","476","classify_self","arrowright","true","../../test_img/12.png","其他","自我","自我","[""<img src=\""../../test_img/12.png\"" width=150 style=\""vertical-align:middle\"">---自我"",""<img src=\""../../test_img/25.png\"" width=150 style=\""vertical-align:middle\"">---生人"",""<img src=\""../../test_img/19.png\"" width=150 style=\""vertical-align:middle\"">---朋友""]",""
"","","","","","html-keyboard-response","241","276019","0.0-11.0-0.0-0.0-0.1-1.82","null","<span style='color:GreenYellow; font-size: 70px;'>正确! </span>","null","","","","","","","","","","","","","","","","","","","","","","","","","","feedback_test"
"","","","","","psychophysics","242","277713","0.0-11.0-0.0-0.0-0.1-0.83","593","","arrowleft","","","","","","","","","","","","","key","arrowleft","4.161728395061728","853.3333333333334","476","classify_self","arrowleft","true","../../test_img/12.png","自我","其他","自我","[""<img src=\""../../test_img/12.png\"" width=150 style=\""vertical-align:middle\"">---自我"",""<img src=\""../../test_img/25.png\"" width=150 style=\""vertical-align:middle\"">---生人"",""<img src=\""../../test_img/19.png\"" width=150 style=\""vertical-align:middle\"">---朋友""]",""
"","","","","","html-keyboard-response","243","278019","0.0-11.0-0.0-0.0-0.1-1.83","null","<span style='color:GreenYellow; font-size: 70px;'>正确! </span>","null","","","","","","","","","","","","","","","","","","","","","","","","","","feedback_test"
"","","","","","psychophysics","244","279627","0.0-11.0-0.0-0.0-0.1-0.84","507","","arrowleft","","","","","","","","","","","","","key","arrowleft","4.163541666666636","853.3333333333334","476","classify_self","arrowleft","true","../../test_img/12.png","自我","其他","自我","[""<img src=\""../../test_img/12.png\"" width=150 style=\""vertical-align:middle\"">---自我"",""<img src=\""../../test_img/25.png\"" width=150 style=\""vertical-align:middle\"">---生人"",""<img src=\""../../test_img/19.png\"" width=150 style=\""vertical-align:middle\"">---朋友""]",""
"","","","","","html-keyboard-response","245","279941","0.0-11.0-0.0-0.0-0.1-1.84","null","<span style='color:GreenYellow; font-size: 70px;'>正确! </span>","null","","","","","","","","","","","","","","","","","","","","","","","","","","feedback_test"
"","","","","","psychophysics","246","281626","0.0-11.0-0.0-0.0-0.1-0.85","582","","arrowleft","","","","","","","","","","","","","key","arrowleft","4.166253101736973","853.3333333333334","476","classify_self","arrowleft","true","../../test_img/25.png","其他","自我","生人","[""<img src=\""../../test_img/12.png\"" width=150 style=\""vertical-align:middle\"">---自我"",""<img src=\""../../test_img/25.png\"" width=150 style=\""vertical-align:middle\"">---生人"",""<img src=\""../../test_img/19.png\"" width=150 style=\""vertical-align:middle\"">---朋友""]",""
"","","","","","html-keyboard-response","247","281936","0.0-11.0-0.0-0.0-0.1-1.85","null","<span style='color:GreenYellow; font-size: 70px;'>正确! </span>","null","","","","","","","","","","","","","","","","","","","","","","","","","","feedback_test"
"","","","","","psychophysics","248","283515","0.0-11.0-0.0-0.0-0.1-0.86","474","","arrowright","","","","","","","","","","","","","key","arrowright","4.165517241379372","853.3333333333334","476","classify_self","arrowright","true","../../test_img/19.png","自我","其他","朋友","[""<img src=\""../../test_img/12.png\"" width=150 style=\""vertical-align:middle\"">---自我"",""<img src=\""../../test_img/25.png\"" width=150 style=\""vertical-align:middle\"">---生人"",""<img src=\""../../test_img/19.png\"" width=150 style=\""vertical-align:middle\"">---朋友""]",""
"","","","","","html-keyboard-response","249","283829","0.0-11.0-0.0-0.0-0.1-1.86","null","<span style='color:GreenYellow; font-size: 70px;'>正确! </span>","null","","","","","","","","","","","","","","","","","","","","","","","","","","feedback_test"
"","","","","","psychophysics","250","285503","0.0-11.0-0.0-0.0-0.1-0.87","571","","arrowright","","","","","","","","","","","","","key","arrowright","4.1660847880300125","853.3333333333334","476","classify_self","arrowright","true","../../test_img/25.png","自我","其他","生人","[""<img src=\""../../test_img/12.png\"" width=150 style=\""vertical-align:middle\"">---自我"",""<img src=\""../../test_img/25.png\"" width=150 style=\""vertical-align:middle\"">---生人"",""<img src=\""../../test_img/19.png\"" width=150 style=\""vertical-align:middle\"">---朋友""]",""
"","","","","","html-keyboard-response","251","285804","0.0-11.0-0.0-0.0-0.1-1.87","null","<span style='color:GreenYellow; font-size: 70px;'>正确! </span>","null","","","","","","","","","","","","","","","","","","","","","","","","","","feedback_test"
"","","","","","psychophysics","252","287530","0.0-11.0-0.0-0.0-0.1-0.88","624","","arrowleft","","","","","","","","","","","","","key","arrowleft","4.166585956416437","853.3333333333334","476","classify_self","arrowleft","true","../../test_img/19.png","其他","自我","朋友","[""<img src=\""../../test_img/12.png\"" width=150 style=\""vertical-align:middle\"">---自我"",""<img src=\""../../test_img/25.png\"" width=150 style=\""vertical-align:middle\"">---生人"",""<img src=\""../../test_img/19.png\"" width=150 style=\""vertical-align:middle\"">---朋友""]",""
"","","","","","html-keyboard-response","253","287833","0.0-11.0-0.0-0.0-0.1-1.88","null","<span style='color:GreenYellow; font-size: 70px;'>正确! </span>","null","","","","","","","","","","","","","","","","","","","","","","","","","","feedback_test"
