"success","timeout","failed_images","failed_audio","failed_video","trial_type","trial_index","time_elapsed","internal_node_id","rt","stimulus","response","value","item_width_mm","item_height_mm","item_width_px","px2mm","view_dist_mm","item_width_deg","px2deg","scale_factor","win_width_deg","win_height_deg","view_history","response_type","key_press","avg_frame_time","center_x","center_y","correct_response","correct","Image","word","condition","shape","association","screen_id","LeftLable","RightLable"
"true","false","[]","[]","[]","preload","0","58","0.0-0.0","","","","","","","","","","","","","","","","","","","","","","","","","","","","","",""
"","","","","","html-keyboard-response","1","12139","0.0-1.0","12075","
     <p>您好，欢迎参加本次实验。</p>
     <p>为充分保障您的权利，请确保您已经知晓并同意《参与实验同意书》以及《数据公开知情同意书》。</p>
     <p>如果您未见过上述内容，请咨询实验员。</p>
     <p>如果您选择继续实验，则表示您已经清楚两份知情同意书的内容并同意。</p>
     <p> <div style = ""color: green""><按任意键至下页></div> </p>
     "," ","","","","","","","","","","","","","","","","","","","","","","","","","","",""
"","","","","","html-keyboard-response","2","13727","0.0-2.0","1587","
     <p>本实验首先需要您填写一些基本个人信息。</p>
     <p> <div style = ""color: green""><按任意键至下页></div></p>
     "," ","","","","","","","","","","","","","","","","","","","","","","","","","","",""
"","","","","","call-function","3","13727","0.0-3.0-0.0","","","","","","","","","","","","","","","","","","","","","","","","","","","","","",""
"","","","","","survey-html-form","4","17116","0.0-3.0-1.0","3387","","{""Q0"":""13""}","","","","","","","","","","","","","","","","","","","","","","","","","","",""
"","","","","","html-button-response","5","17964","0.0-3.0-2.0","844","<p style = 'color : white'>您的性别</p>","1","","","","","","","","","","","","","","","","","","","","","","","","","","",""
"","","","","","survey-html-form","6","21291","0.0-3.0-3.0","3326","","{""Q0"":""2001""}","","","","","","","","","","","","","","","","","","","","","","","","","","",""
"","","","","","survey-html-form","7","24772","0.0-3.0-4.0","3480","","{""Q0"":""6""}","","","","","","","","","","","","","","","","","","","","","","","","","","",""
"","","","","","virtual-chinrest","8","147781","0.0-4.0","123006","","","","85.6","53.98","420.20481604900885","4.914259713115527","582.54","8.404096320980177","50","0.8424463177944935","25.6","11.96","","","","","","","","","","","","","","","",""
"true","","","","","fullscreen","9","171433","0.0-5.0","","","","","","","","","","","","","","","","","","","","","","","","","","","","","",""
"","","","","","instructions","10","207115","0.0-6.0","35682","","","","","","","","","","","","","","[{""page_index"":0,""viewing_time"":6355},{""page_index"":1,""viewing_time"":13423},{""page_index"":2,""viewing_time"":12032},{""page_index"":3,""viewing_time"":1761},{""page_index"":4,""viewing_time"":2111}]","","","","","","","","","","","","","","",""
"","","","","","psychophysics","11","209620","0.0-7.0-0.0-0.0","null","","null","","","","","","","","","","","","","key","null","16.66","640","356","arrowright","false","../../test_img/26.png","朋友","prac_matching_task","朋友","[""<img src=\""../../test_img/26.png\"" width=150 style=\""vertical-align:middle\"">---朋友"",""<img src=\""../../test_img/22.png\"" width=150 style=\""vertical-align:middle\"">---生人"",""<img src=\""../../test_img/15.png\"" width=150 style=\""vertical-align:middle\"">---自我""]","","",""
"","","","","","html-keyboard-response","12","209935","0.0-7.0-0.0-1.0","null","<span class='add_' style='color:yellow; font-size: 70px;'> 太慢! </span>","null","","","","","","","","","","","","","","","","","","","","","","","","","feedback_test","",""
"","","","","","psychophysics","13","211570","0.0-7.0-0.0-0.1","633","","arrowright","","","","","","","","","","","","","key","arrowright","16.65979381443299","640","356","arrowright","true","../../test_img/26.png","朋友","prac_matching_task","朋友","[""<img src=\""../../test_img/26.png\"" width=150 style=\""vertical-align:middle\"">---朋友"",""<img src=\""../../test_img/22.png\"" width=150 style=\""vertical-align:middle\"">---生人"",""<img src=\""../../test_img/15.png\"" width=150 style=\""vertical-align:middle\"">---自我""]","","",""
"","","","","","html-keyboard-response","14","211872","0.0-7.0-0.0-1.1","null","<span style='color:GreenYellow; font-size: 70px;'>正确! </span>","null","","","","","","","","","","","","","","","","","","","","","","","","","feedback_test","",""
"","","","","","psychophysics","15","213449","0.0-7.0-0.0-0.2","567","","arrowright","","","","","","","","","","","","","key","arrowright","16.66344086021518","640","356","arrowleft","false","../../test_img/26.png","生人","prac_matching_task","朋友","[""<img src=\""../../test_img/26.png\"" width=150 style=\""vertical-align:middle\"">---朋友"",""<img src=\""../../test_img/22.png\"" width=150 style=\""vertical-align:middle\"">---生人"",""<img src=\""../../test_img/15.png\"" width=150 style=\""vertical-align:middle\"">---自我""]","","",""
"","","","","","html-keyboard-response","16","213754","0.0-7.0-0.0-1.2","null","<span style='color:red; font-size: 70px;'>错误! </span>","null","","","","","","","","","","","","","","","","","","","","","","","","","feedback_test","",""
"","","","","","psychophysics","17","215931","0.0-7.0-0.0-0.3","1162","","arrowleft","","","","","","","","","","","","","key","arrowleft","16.661240310077655","640","356","arrowleft","true","../../test_img/15.png","朋友","prac_matching_task","自我","[""<img src=\""../../test_img/26.png\"" width=150 style=\""vertical-align:middle\"">---朋友"",""<img src=\""../../test_img/22.png\"" width=150 style=\""vertical-align:middle\"">---生人"",""<img src=\""../../test_img/15.png\"" width=150 style=\""vertical-align:middle\"">---自我""]","","",""
"","","","","","html-keyboard-response","18","216241","0.0-7.0-0.0-1.3","null","<span style='color:GreenYellow; font-size: 70px;'>正确! </span>","null","","","","","","","","","","","","","","","","","","","","","","","","","feedback_test","",""
"","","","","","psychophysics","19","218371","0.0-7.0-0.0-0.4","1121","","arrowleft","","","","","","","","","","","","","key","arrowleft","16.663779527559193","640","356","arrowright","false","../../test_img/15.png","自我","prac_matching_task","自我","[""<img src=\""../../test_img/26.png\"" width=150 style=\""vertical-align:middle\"">---朋友"",""<img src=\""../../test_img/22.png\"" width=150 style=\""vertical-align:middle\"">---生人"",""<img src=\""../../test_img/15.png\"" width=150 style=\""vertical-align:middle\"">---自我""]","","",""
"","","","","","html-keyboard-response","20","218681","0.0-7.0-0.0-1.4","null","<span style='color:red; font-size: 70px;'>错误! </span>","null","","","","","","","","","","","","","","","","","","","","","","","","","feedback_test","",""
"","","","","","psychophysics","21","220817","0.0-7.0-0.0-0.5","1132","","arrowleft","","","","","","","","","","","","","key","arrowleft","16.664566929133812","640","356","arrowleft","true","../../test_img/22.png","朋友","prac_matching_task","生人","[""<img src=\""../../test_img/26.png\"" width=150 style=\""vertical-align:middle\"">---朋友"",""<img src=\""../../test_img/22.png\"" width=150 style=\""vertical-align:middle\"">---生人"",""<img src=\""../../test_img/15.png\"" width=150 style=\""vertical-align:middle\"">---自我""]","","",""
"","","","","","html-keyboard-response","22","221121","0.0-7.0-0.0-1.5","null","<span style='color:GreenYellow; font-size: 70px;'>正确! </span>","null","","","","","","","","","","","","","","","","","","","","","","","","","feedback_test","",""
"","","","","","psychophysics","23","223464","0.0-7.0-0.0-0.6","1329","","arrowright","","","","","","","","","","","","","key","arrowright","16.664028776978334","640","356","arrowleft","false","../../test_img/26.png","自我","prac_matching_task","朋友","[""<img src=\""../../test_img/26.png\"" width=150 style=\""vertical-align:middle\"">---朋友"",""<img src=\""../../test_img/22.png\"" width=150 style=\""vertical-align:middle\"">---生人"",""<img src=\""../../test_img/15.png\"" width=150 style=\""vertical-align:middle\"">---自我""]","","",""
"","","","","","html-keyboard-response","24","223778","0.0-7.0-0.0-1.6","null","<span style='color:red; font-size: 70px;'>错误! </span>","null","","","","","","","","","","","","","","","","","","","","","","","","","feedback_test","",""
"","","","","","psychophysics","25","225645","0.0-7.0-0.0-0.7","860","","arrowright","","","","","","","","","","","","","key","arrowright","16.663963963963806","640","356","arrowright","true","../../test_img/15.png","自我","prac_matching_task","自我","[""<img src=\""../../test_img/26.png\"" width=150 style=\""vertical-align:middle\"">---朋友"",""<img src=\""../../test_img/22.png\"" width=150 style=\""vertical-align:middle\"">---生人"",""<img src=\""../../test_img/15.png\"" width=150 style=\""vertical-align:middle\"">---自我""]","","",""
"","","","","","html-keyboard-response","26","225959","0.0-7.0-0.0-1.7","null","<span style='color:GreenYellow; font-size: 70px;'>正确! </span>","null","","","","","","","","","","","","","","","","","","","","","","","","","feedback_test","",""
"","","","","","psychophysics","27","228108","0.0-7.0-0.0-0.8","1139","","arrowleft","","","","","","","","","","","","","key","arrowleft","16.664843750000045","640","356","arrowleft","true","../../test_img/22.png","自我","prac_matching_task","生人","[""<img src=\""../../test_img/26.png\"" width=150 style=\""vertical-align:middle\"">---朋友"",""<img src=\""../../test_img/22.png\"" width=150 style=\""vertical-align:middle\"">---生人"",""<img src=\""../../test_img/15.png\"" width=150 style=\""vertical-align:middle\"">---自我""]","","",""
"","","","","","html-keyboard-response","28","228424","0.0-7.0-0.0-1.8","null","<span style='color:GreenYellow; font-size: 70px;'>正确! </span>","null","","","","","","","","","","","","","","","","","","","","","","","","","feedback_test","",""
"","","","","","psychophysics","29","230768","0.0-7.0-0.0-0.9","1337","","arrowright","","","","","","","","","","","","","key","arrowright","16.664285714285715","640","356","arrowleft","false","../../test_img/15.png","生人","prac_matching_task","自我","[""<img src=\""../../test_img/26.png\"" width=150 style=\""vertical-align:middle\"">---朋友"",""<img src=\""../../test_img/22.png\"" width=150 style=\""vertical-align:middle\"">---生人"",""<img src=\""../../test_img/15.png\"" width=150 style=\""vertical-align:middle\"">---自我""]","","",""
"","","","","","html-keyboard-response","30","231073","0.0-7.0-0.0-1.9","null","<span style='color:red; font-size: 70px;'>错误! </span>","null","","","","","","","","","","","","","","","","","","","","","","","","","feedback_test","",""
"","","","","","psychophysics","31","233161","0.0-7.0-0.0-0.10","1078","","arrowleft","","","","","","","","","","","","","key","arrowleft","16.662903225806545","640","356","arrowright","false","../../test_img/22.png","生人","prac_matching_task","生人","[""<img src=\""../../test_img/26.png\"" width=150 style=\""vertical-align:middle\"">---朋友"",""<img src=\""../../test_img/22.png\"" width=150 style=\""vertical-align:middle\"">---生人"",""<img src=\""../../test_img/15.png\"" width=150 style=\""vertical-align:middle\"">---自我""]","","",""
"","","","","","html-keyboard-response","32","233464","0.0-7.0-0.0-1.10","null","<span style='color:red; font-size: 70px;'>错误! </span>","null","","","","","","","","","","","","","","","","","","","","","","","","","feedback_test","",""
"","","","","","psychophysics","33","235513","0.0-7.0-0.0-0.11","1047","","arrowright","","","","","","","","","","","","","key","arrowright","16.663114754098313","640","356","arrowright","true","../../test_img/22.png","生人","prac_matching_task","生人","[""<img src=\""../../test_img/26.png\"" width=150 style=\""vertical-align:middle\"">---朋友"",""<img src=\""../../test_img/22.png\"" width=150 style=\""vertical-align:middle\"">---生人"",""<img src=\""../../test_img/15.png\"" width=150 style=\""vertical-align:middle\"">---自我""]","","",""
"","","","","","html-keyboard-response","34","235816","0.0-7.0-0.0-1.11","null","<span style='color:GreenYellow; font-size: 70px;'>正确! </span>","null","","","","","","","","","","","","","","","","","","","","","","","","","feedback_test","",""
"","","","","","psychophysics","35","237949","0.0-7.0-0.0-0.12","1118","","arrowright","","","","","","","","","","","","","key","arrowright","16.66377952755896","640","356","arrowright","true","../../test_img/22.png","生人","prac_matching_task","生人","[""<img src=\""../../test_img/26.png\"" width=150 style=\""vertical-align:middle\"">---朋友"",""<img src=\""../../test_img/22.png\"" width=150 style=\""vertical-align:middle\"">---生人"",""<img src=\""../../test_img/15.png\"" width=150 style=\""vertical-align:middle\"">---自我""]","","",""
"","","","","","html-keyboard-response","36","238254","0.0-7.0-0.0-1.12","null","<span style='color:GreenYellow; font-size: 70px;'>正确! </span>","null","","","","","","","","","","","","","","","","","","","","","","","","","feedback_test","",""
"","","","","","psychophysics","37","240527","0.0-7.0-0.0-0.13","1261","","arrowright","","","","","","","","","","","","","key","arrowright","16.661481481481395","640","356","arrowright","true","../../test_img/15.png","自我","prac_matching_task","自我","[""<img src=\""../../test_img/26.png\"" width=150 style=\""vertical-align:middle\"">---朋友"",""<img src=\""../../test_img/22.png\"" width=150 style=\""vertical-align:middle\"">---生人"",""<img src=\""../../test_img/15.png\"" width=150 style=\""vertical-align:middle\"">---自我""]","","",""
"","","","","","html-keyboard-response","38","240842","0.0-7.0-0.0-1.13","null","<span style='color:GreenYellow; font-size: 70px;'>正确! </span>","null","","","","","","","","","","","","","","","","","","","","","","","","","feedback_test","",""
"","","","","","psychophysics","39","243045","0.0-7.0-0.0-0.14","1197","","arrowleft","","","","","","","","","","","","","key","arrowleft","16.66412213740458","640","356","arrowleft","true","../../test_img/26.png","生人","prac_matching_task","朋友","[""<img src=\""../../test_img/26.png\"" width=150 style=\""vertical-align:middle\"">---朋友"",""<img src=\""../../test_img/22.png\"" width=150 style=\""vertical-align:middle\"">---生人"",""<img src=\""../../test_img/15.png\"" width=150 style=\""vertical-align:middle\"">---自我""]","","",""
"","","","","","html-keyboard-response","40","243360","0.0-7.0-0.0-1.14","null","<span style='color:GreenYellow; font-size: 70px;'>正确! </span>","null","","","","","","","","","","","","","","","","","","","","","","","","","feedback_test","",""
"","","","","","psychophysics","41","245440","0.0-7.0-0.0-0.15","1074","","arrowright","","","","","","","","","","","","","key","arrowright","16.664516129032446","640","356","arrowright","true","../../test_img/22.png","生人","prac_matching_task","生人","[""<img src=\""../../test_img/26.png\"" width=150 style=\""vertical-align:middle\"">---朋友"",""<img src=\""../../test_img/22.png\"" width=150 style=\""vertical-align:middle\"">---生人"",""<img src=\""../../test_img/15.png\"" width=150 style=\""vertical-align:middle\"">---自我""]","","",""
"","","","","","html-keyboard-response","42","245744","0.0-7.0-0.0-1.15","null","<span style='color:GreenYellow; font-size: 70px;'>正确! </span>","null","","","","","","","","","","","","","","","","","","","","","","","","","feedback_test","",""
"","","","","","psychophysics","43","248248","0.0-7.0-0.0-0.16","null","","null","","","","","","","","","","","","","key","null","16.6637583892619","640","356","arrowright","false","../../test_img/26.png","朋友","prac_matching_task","朋友","[""<img src=\""../../test_img/26.png\"" width=150 style=\""vertical-align:middle\"">---朋友"",""<img src=\""../../test_img/22.png\"" width=150 style=\""vertical-align:middle\"">---生人"",""<img src=\""../../test_img/15.png\"" width=150 style=\""vertical-align:middle\"">---自我""]","","",""
"","","","","","html-keyboard-response","44","248556","0.0-7.0-0.0-1.16","null","<span class='add_' style='color:yellow; font-size: 70px;'> 太慢! </span>","null","","","","","","","","","","","","","","","","","","","","","","","","","feedback_test","",""
"","","","","","psychophysics","45","250275","0.0-7.0-0.0-0.17","716","","arrowright","","","","","","","","","","","","","key","arrowright","16.66470588235311","640","356","arrowright","true","../../test_img/15.png","自我","prac_matching_task","自我","[""<img src=\""../../test_img/26.png\"" width=150 style=\""vertical-align:middle\"">---朋友"",""<img src=\""../../test_img/22.png\"" width=150 style=\""vertical-align:middle\"">---生人"",""<img src=\""../../test_img/15.png\"" width=150 style=\""vertical-align:middle\"">---自我""]","","",""
"","","","","","html-keyboard-response","46","250576","0.0-7.0-0.0-1.17","null","<span style='color:GreenYellow; font-size: 70px;'>正确! </span>","null","","","","","","","","","","","","","","","","","","","","","","","","","feedback_test","",""
"","","","","","psychophysics","47","252549","0.0-7.0-0.0-0.18","970","","arrowleft","","","","","","","","","","","","","key","arrowleft","16.664406779661213","640","356","arrowright","false","../../test_img/26.png","朋友","prac_matching_task","朋友","[""<img src=\""../../test_img/26.png\"" width=150 style=\""vertical-align:middle\"">---朋友"",""<img src=\""../../test_img/22.png\"" width=150 style=\""vertical-align:middle\"">---生人"",""<img src=\""../../test_img/15.png\"" width=150 style=\""vertical-align:middle\"">---自我""]","","",""
"","","","","","html-keyboard-response","48","252859","0.0-7.0-0.0-1.18","null","<span style='color:red; font-size: 70px;'>错误! </span>","null","","","","","","","","","","","","","","","","","","","","","","","","","feedback_test","",""
"","","","","","psychophysics","49","255362","0.0-7.0-0.0-0.19","null","","null","","","","","","","","","","","","","key","null","16.664429530201343","640","356","arrowleft","false","../../test_img/15.png","朋友","prac_matching_task","自我","[""<img src=\""../../test_img/26.png\"" width=150 style=\""vertical-align:middle\"">---朋友"",""<img src=\""../../test_img/22.png\"" width=150 style=\""vertical-align:middle\"">---生人"",""<img src=\""../../test_img/15.png\"" width=150 style=\""vertical-align:middle\"">---自我""]","","",""
"","","","","","html-keyboard-response","50","255676","0.0-7.0-0.0-1.19","null","<span class='add_' style='color:yellow; font-size: 70px;'> 太慢! </span>","null","","","","","","","","","","","","","","","","","","","","","","","","","feedback_test","",""
"","","","","","psychophysics","51","257513","0.0-7.0-0.0-0.20","834","","arrowright","","","","","","","","","","","","","key","arrowright","16.66272727272722","640","356","arrowleft","false","../../test_img/22.png","朋友","prac_matching_task","生人","[""<img src=\""../../test_img/26.png\"" width=150 style=\""vertical-align:middle\"">---朋友"",""<img src=\""../../test_img/22.png\"" width=150 style=\""vertical-align:middle\"">---生人"",""<img src=\""../../test_img/15.png\"" width=150 style=\""vertical-align:middle\"">---自我""]","","",""
"","","","","","html-keyboard-response","52","257826","0.0-7.0-0.0-1.20","null","<span style='color:red; font-size: 70px;'>错误! </span>","null","","","","","","","","","","","","","","","","","","","","","","","","","feedback_test","",""
"","","","","","psychophysics","53","260122","0.0-7.0-0.0-0.21","1293","","arrowleft","","","","","","","","","","","","","key","arrowleft","16.664233576642335","640","356","arrowleft","true","../../test_img/26.png","自我","prac_matching_task","朋友","[""<img src=\""../../test_img/26.png\"" width=150 style=\""vertical-align:middle\"">---朋友"",""<img src=\""../../test_img/22.png\"" width=150 style=\""vertical-align:middle\"">---生人"",""<img src=\""../../test_img/15.png\"" width=150 style=\""vertical-align:middle\"">---自我""]","","",""
"","","","","","html-keyboard-response","54","260431","0.0-7.0-0.0-1.21","null","<span style='color:GreenYellow; font-size: 70px;'>正确! </span>","null","","","","","","","","","","","","","","","","","","","","","","","","","feedback_test","",""
"","","","","","psychophysics","55","262343","0.0-7.0-0.0-0.22","899","","arrowleft","","","","","","","","","","","","","key","arrowleft","16.662831858407028","640","356","arrowleft","true","../../test_img/15.png","生人","prac_matching_task","自我","[""<img src=\""../../test_img/26.png\"" width=150 style=\""vertical-align:middle\"">---朋友"",""<img src=\""../../test_img/22.png\"" width=150 style=\""vertical-align:middle\"">---生人"",""<img src=\""../../test_img/15.png\"" width=150 style=\""vertical-align:middle\"">---自我""]","","",""
"","","","","","html-keyboard-response","56","262647","0.0-7.0-0.0-1.22","null","<span style='color:GreenYellow; font-size: 70px;'>正确! </span>","null","","","","","","","","","","","","","","","","","","","","","","","","","feedback_test","",""
"","","","","","psychophysics","57","264606","0.0-7.0-0.0-0.23","949","","arrowleft","","","","","","","","","","","","","key","arrowleft","16.662931034482458","640","356","arrowleft","true","../../test_img/22.png","自我","prac_matching_task","生人","[""<img src=\""../../test_img/26.png\"" width=150 style=\""vertical-align:middle\"">---朋友"",""<img src=\""../../test_img/22.png\"" width=150 style=\""vertical-align:middle\"">---生人"",""<img src=\""../../test_img/15.png\"" width=150 style=\""vertical-align:middle\"">---自我""]","","",""
"","","","","","html-keyboard-response","58","264916","0.0-7.0-0.0-1.23","null","<span style='color:GreenYellow; font-size: 70px;'>正确! </span>","null","","","","","","","","","","","","","","","","","","","","","","","","","feedback_test","",""
"","","","","","html-keyboard-response","59","282183","0.0-7.0-1.0-0.0","17264","<style>.context{color:white; font-size: 35px; line-height:40px}</style>                          <div><p class='context'>您正确回答了58% 的试次。</p ><p class='context'>您的平均反应时为1034毫秒。</p >"," ","","","","","","","","","","","","","","","","","","","","","","","","","","",""
"","","","","","instructions","60","309804","0.0-7.0-1.0-1.0","27619","","","","","","","","","","","","","","[{""page_index"":0,""viewing_time"":9531},{""page_index"":1,""viewing_time"":15535},{""page_index"":2,""viewing_time"":1352},{""page_index"":3,""viewing_time"":1200}]","","","","","","","","","","","","","","",""
"","","","","","psychophysics","61","311671","0.0-7.1-0.1-0.24","853","","arrowright","","","","","","","","","","","","","key","arrowright","16.66396396396407","640","356","arrowright","true","../../test_img/15.png","自我","prac_matching_task","自我","[""<img src=\""../../test_img/26.png\"" width=150 style=\""vertical-align:middle\"">---朋友"",""<img src=\""../../test_img/22.png\"" width=150 style=\""vertical-align:middle\"">---生人"",""<img src=\""../../test_img/15.png\"" width=150 style=\""vertical-align:middle\"">---自我""]","","",""
"","","","","","html-keyboard-response","62","311985","0.0-7.1-0.1-1.24","null","<span style='color:GreenYellow; font-size: 70px;'>正确! </span>","null","","","","","","","","","","","","","","","","","","","","","","","","","feedback_test","",""
"","","","","","psychophysics","63","313670","0.0-7.1-0.1-0.25","683","","arrowleft","","","","","","","","","","","","","key","arrowleft","16.64","640","356","arrowleft","true","../../test_img/15.png","生人","prac_matching_task","自我","[""<img src=\""../../test_img/26.png\"" width=150 style=\""vertical-align:middle\"">---朋友"",""<img src=\""../../test_img/22.png\"" width=150 style=\""vertical-align:middle\"">---生人"",""<img src=\""../../test_img/15.png\"" width=150 style=\""vertical-align:middle\"">---自我""]","","",""
"","","","","","html-keyboard-response","64","313972","0.0-7.1-0.1-1.25","null","<span style='color:GreenYellow; font-size: 70px;'>正确! </span>","null","","","","","","","","","","","","","","","","","","","","","","","","","feedback_test","",""
"","","","","","psychophysics","65","316165","0.0-7.1-0.1-0.26","1178","","arrowleft","","","","","","","","","","","","","key","arrowleft","16.66076923076941","640","356","arrowleft","true","../../test_img/15.png","朋友","prac_matching_task","自我","[""<img src=\""../../test_img/26.png\"" width=150 style=\""vertical-align:middle\"">---朋友"",""<img src=\""../../test_img/22.png\"" width=150 style=\""vertical-align:middle\"">---生人"",""<img src=\""../../test_img/15.png\"" width=150 style=\""vertical-align:middle\"">---自我""]","","",""
"","","","","","html-keyboard-response","66","316470","0.0-7.1-0.1-1.26","null","<span style='color:GreenYellow; font-size: 70px;'>正确! </span>","null","","","","","","","","","","","","","","","","","","","","","","","","","feedback_test","",""
"","","","","","psychophysics","67","318679","0.0-7.1-0.1-0.27","1194","","arrowright","","","","","","","","","","","","","key","arrowright","16.66030534351145","640","356","arrowleft","false","../../test_img/26.png","生人","prac_matching_task","朋友","[""<img src=\""../../test_img/26.png\"" width=150 style=\""vertical-align:middle\"">---朋友"",""<img src=\""../../test_img/22.png\"" width=150 style=\""vertical-align:middle\"">---生人"",""<img src=\""../../test_img/15.png\"" width=150 style=\""vertical-align:middle\"">---自我""]","","",""
"","","","","","html-keyboard-response","68","318992","0.0-7.1-0.1-1.27","null","<span style='color:red; font-size: 70px;'>错误! </span>","null","","","","","","","","","","","","","","","","","","","","","","","","","feedback_test","",""
"","","","","","psychophysics","69","320693","0.0-7.1-0.1-0.28","690","","arrowright","","","","","","","","","","","","","key","arrowright","16.664356435643334","640","356","arrowright","true","../../test_img/26.png","朋友","prac_matching_task","朋友","[""<img src=\""../../test_img/26.png\"" width=150 style=\""vertical-align:middle\"">---朋友"",""<img src=\""../../test_img/22.png\"" width=150 style=\""vertical-align:middle\"">---生人"",""<img src=\""../../test_img/15.png\"" width=150 style=\""vertical-align:middle\"">---自我""]","","",""
"","","","","","html-keyboard-response","70","321006","0.0-7.1-0.1-1.28","null","<span style='color:GreenYellow; font-size: 70px;'>正确! </span>","null","","","","","","","","","","","","","","","","","","","","","","","","","feedback_test","",""
"","","","","","psychophysics","71","322794","0.0-7.1-0.1-0.29","776","","arrowright","","","","","","","","","","","","","key","arrowright","16.666037735848835","640","356","arrowright","true","../../test_img/15.png","自我","prac_matching_task","自我","[""<img src=\""../../test_img/26.png\"" width=150 style=\""vertical-align:middle\"">---朋友"",""<img src=\""../../test_img/22.png\"" width=150 style=\""vertical-align:middle\"">---生人"",""<img src=\""../../test_img/15.png\"" width=150 style=\""vertical-align:middle\"">---自我""]","","",""
"","","","","","html-keyboard-response","72","323109","0.0-7.1-0.1-1.29","null","<span style='color:GreenYellow; font-size: 70px;'>正确! </span>","null","","","","","","","","","","","","","","","","","","","","","","","","","feedback_test","",""
"","","","","","psychophysics","73","325407","0.0-7.1-0.1-0.30","1289","","arrowleft","","","","","","","","","","","","","key","arrowleft","16.663503649635206","640","356","arrowright","false","../../test_img/26.png","朋友","prac_matching_task","朋友","[""<img src=\""../../test_img/26.png\"" width=150 style=\""vertical-align:middle\"">---朋友"",""<img src=\""../../test_img/22.png\"" width=150 style=\""vertical-align:middle\"">---生人"",""<img src=\""../../test_img/15.png\"" width=150 style=\""vertical-align:middle\"">---自我""]","","",""
"","","","","","html-keyboard-response","74","325708","0.0-7.1-0.1-1.30","null","<span style='color:red; font-size: 70px;'>错误! </span>","null","","","","","","","","","","","","","","","","","","","","","","","","","feedback_test","",""
"","","","","","psychophysics","75","327701","0.0-7.1-0.1-0.31","983","","arrowleft","","","","","","","","","","","","","key","arrowleft","16.663559322034292","640","356","arrowright","false","../../test_img/22.png","生人","prac_matching_task","生人","[""<img src=\""../../test_img/26.png\"" width=150 style=\""vertical-align:middle\"">---朋友"",""<img src=\""../../test_img/22.png\"" width=150 style=\""vertical-align:middle\"">---生人"",""<img src=\""../../test_img/15.png\"" width=150 style=\""vertical-align:middle\"">---自我""]","","",""
"","","","","","html-keyboard-response","76","328003","0.0-7.1-0.1-1.31","null","<span style='color:red; font-size: 70px;'>错误! </span>","null","","","","","","","","","","","","","","","","","","","","","","","","","feedback_test","",""
"","","","","","psychophysics","77","330374","0.0-7.1-0.1-0.32","1363","","arrowleft","","","","","","","","","","","","","key","arrowleft","16.667375886524656","640","356","arrowleft","true","../../test_img/26.png","自我","prac_matching_task","朋友","[""<img src=\""../../test_img/26.png\"" width=150 style=\""vertical-align:middle\"">---朋友"",""<img src=\""../../test_img/22.png\"" width=150 style=\""vertical-align:middle\"">---生人"",""<img src=\""../../test_img/15.png\"" width=150 style=\""vertical-align:middle\"">---自我""]","","",""
"","","","","","html-keyboard-response","78","330680","0.0-7.1-0.1-1.32","null","<span style='color:GreenYellow; font-size: 70px;'>正确! </span>","null","","","","","","","","","","","","","","","","","","","","","","","","","feedback_test","",""
"","","","","","psychophysics","79","332813","0.0-7.1-0.1-0.33","1129","","arrowright","","","","","","","","","","","","","key","arrowright","16.662992125984342","640","356","arrowright","true","../../test_img/22.png","生人","prac_matching_task","生人","[""<img src=\""../../test_img/26.png\"" width=150 style=\""vertical-align:middle\"">---朋友"",""<img src=\""../../test_img/22.png\"" width=150 style=\""vertical-align:middle\"">---生人"",""<img src=\""../../test_img/15.png\"" width=150 style=\""vertical-align:middle\"">---自我""]","","",""
"","","","","","html-keyboard-response","80","333120","0.0-7.1-0.1-1.33","null","<span style='color:GreenYellow; font-size: 70px;'>正确! </span>","null","","","","","","","","","","","","","","","","","","","","","","","","","feedback_test","",""
"","","","","","psychophysics","81","335634","0.0-7.1-0.1-0.34","null","","null","","","","","","","","","","","","","key","null","16.664000000000232","640","356","arrowleft","false","../../test_img/22.png","朋友","prac_matching_task","生人","[""<img src=\""../../test_img/26.png\"" width=150 style=\""vertical-align:middle\"">---朋友"",""<img src=\""../../test_img/22.png\"" width=150 style=\""vertical-align:middle\"">---生人"",""<img src=\""../../test_img/15.png\"" width=150 style=\""vertical-align:middle\"">---自我""]","","",""
"","","","","","html-keyboard-response","82","335936","0.0-7.1-0.1-1.34","null","<span class='add_' style='color:yellow; font-size: 70px;'> 太慢! </span>","null","","","","","","","","","","","","","","","","","","","","","","","","","feedback_test","",""
"","","","","","psychophysics","83","338340","0.0-7.1-0.1-0.35","1394","","arrowleft","","","","","","","","","","","","","key","arrowleft","16.66363636363612","640","356","arrowleft","true","../../test_img/22.png","自我","prac_matching_task","生人","[""<img src=\""../../test_img/26.png\"" width=150 style=\""vertical-align:middle\"">---朋友"",""<img src=\""../../test_img/22.png\"" width=150 style=\""vertical-align:middle\"">---生人"",""<img src=\""../../test_img/15.png\"" width=150 style=\""vertical-align:middle\"">---自我""]","","",""
"","","","","","html-keyboard-response","84","338656","0.0-7.1-0.1-1.35","null","<span style='color:GreenYellow; font-size: 70px;'>正确! </span>","null","","","","","","","","","","","","","","","","","","","","","","","","","feedback_test","",""
"","","","","","psychophysics","85","341166","0.0-7.1-0.1-0.36","null","","null","","","","","","","","","","","","","key","null","16.663999999999845","640","356","arrowleft","false","../../test_img/26.png","生人","prac_matching_task","朋友","[""<img src=\""../../test_img/26.png\"" width=150 style=\""vertical-align:middle\"">---朋友"",""<img src=\""../../test_img/22.png\"" width=150 style=\""vertical-align:middle\"">---生人"",""<img src=\""../../test_img/15.png\"" width=150 style=\""vertical-align:middle\"">---自我""]","","",""
"","","","","","html-keyboard-response","86","341469","0.0-7.1-0.1-1.36","null","<span class='add_' style='color:yellow; font-size: 70px;'> 太慢! </span>","null","","","","","","","","","","","","","","","","","","","","","","","","","feedback_test","",""
"","","","","","psychophysics","87","343225","0.0-7.1-0.1-0.37","743","","arrowright","","","","","","","","","","","","","key","arrowright","16.66346153846154","640","356","arrowright","true","../../test_img/15.png","自我","prac_matching_task","自我","[""<img src=\""../../test_img/26.png\"" width=150 style=\""vertical-align:middle\"">---朋友"",""<img src=\""../../test_img/22.png\"" width=150 style=\""vertical-align:middle\"">---生人"",""<img src=\""../../test_img/15.png\"" width=150 style=\""vertical-align:middle\"">---自我""]","","",""
"","","","","","html-keyboard-response","88","343538","0.0-7.1-0.1-1.37","null","<span style='color:GreenYellow; font-size: 70px;'>正确! </span>","null","","","","","","","","","","","","","","","","","","","","","","","","","feedback_test","",""
"","","","","","psychophysics","89","345712","0.0-7.1-0.1-0.38","1163","","arrowright","","","","","","","","","","","","","key","arrowright","16.66434108527141","640","356","arrowleft","false","../../test_img/22.png","朋友","prac_matching_task","生人","[""<img src=\""../../test_img/26.png\"" width=150 style=\""vertical-align:middle\"">---朋友"",""<img src=\""../../test_img/22.png\"" width=150 style=\""vertical-align:middle\"">---生人"",""<img src=\""../../test_img/15.png\"" width=150 style=\""vertical-align:middle\"">---自我""]","","",""
"","","","","","html-keyboard-response","90","346019","0.0-7.1-0.1-1.38","null","<span style='color:red; font-size: 70px;'>错误! </span>","null","","","","","","","","","","","","","","","","","","","","","","","","","feedback_test","",""
"","","","","","psychophysics","91","348064","0.0-7.1-0.1-0.39","1032","","arrowleft","","","","","","","","","","","","","key","arrowleft","16.66446280991755","640","356","arrowleft","true","../../test_img/26.png","自我","prac_matching_task","朋友","[""<img src=\""../../test_img/26.png\"" width=150 style=\""vertical-align:middle\"">---朋友"",""<img src=\""../../test_img/22.png\"" width=150 style=\""vertical-align:middle\"">---生人"",""<img src=\""../../test_img/15.png\"" width=150 style=\""vertical-align:middle\"">---自我""]","","",""
"","","","","","html-keyboard-response","92","348375","0.0-7.1-0.1-1.39","null","<span style='color:GreenYellow; font-size: 70px;'>正确! </span>","null","","","","","","","","","","","","","","","","","","","","","","","","","feedback_test","",""
"","","","","","psychophysics","93","350623","0.0-7.1-0.1-0.40","1245","","arrowleft","","","","","","","","","","","","","key","arrowleft","16.663432835820636","640","356","arrowright","false","../../test_img/26.png","朋友","prac_matching_task","朋友","[""<img src=\""../../test_img/26.png\"" width=150 style=\""vertical-align:middle\"">---朋友"",""<img src=\""../../test_img/22.png\"" width=150 style=\""vertical-align:middle\"">---生人"",""<img src=\""../../test_img/15.png\"" width=150 style=\""vertical-align:middle\"">---自我""]","","",""
"","","","","","html-keyboard-response","94","350938","0.0-7.1-0.1-1.40","null","<span style='color:red; font-size: 70px;'>错误! </span>","null","","","","","","","","","","","","","","","","","","","","","","","","","feedback_test","",""
"","","","","","psychophysics","95","352877","0.0-7.1-0.1-0.41","936","","arrowleft","","","","","","","","","","","","","key","arrowleft","16.66434782608716","640","356","arrowright","false","../../test_img/22.png","生人","prac_matching_task","生人","[""<img src=\""../../test_img/26.png\"" width=150 style=\""vertical-align:middle\"">---朋友"",""<img src=\""../../test_img/22.png\"" width=150 style=\""vertical-align:middle\"">---生人"",""<img src=\""../../test_img/15.png\"" width=150 style=\""vertical-align:middle\"">---自我""]","","",""
"","","","","","html-keyboard-response","96","353185","0.0-7.1-0.1-1.41","null","<span style='color:red; font-size: 70px;'>错误! </span>","null","","","","","","","","","","","","","","","","","","","","","","","","","feedback_test","",""
"","","","","","psychophysics","97","354796","0.0-7.1-0.1-0.42","608","","arrowright","","","","","","","","","","","","","key","arrowright","16.664210526316158","640","356","arrowright","true","../../test_img/15.png","自我","prac_matching_task","自我","[""<img src=\""../../test_img/26.png\"" width=150 style=\""vertical-align:middle\"">---朋友"",""<img src=\""../../test_img/22.png\"" width=150 style=\""vertical-align:middle\"">---生人"",""<img src=\""../../test_img/15.png\"" width=150 style=\""vertical-align:middle\"">---自我""]","","",""
"","","","","","html-keyboard-response","98","355107","0.0-7.1-0.1-1.42","null","<span style='color:GreenYellow; font-size: 70px;'>正确! </span>","null","","","","","","","","","","","","","","","","","","","","","","","","","feedback_test","",""
"","","","","","psychophysics","99","357535","0.0-7.1-0.1-0.43","1425","","arrowright","","","","","","","","","","","","","key","arrowright","16.664827586206655","640","356","arrowright","true","../../test_img/26.png","朋友","prac_matching_task","朋友","[""<img src=\""../../test_img/26.png\"" width=150 style=\""vertical-align:middle\"">---朋友"",""<img src=\""../../test_img/22.png\"" width=150 style=\""vertical-align:middle\"">---生人"",""<img src=\""../../test_img/15.png\"" width=150 style=\""vertical-align:middle\"">---自我""]","","",""
"","","","","","html-keyboard-response","100","357850","0.0-7.1-0.1-1.43","null","<span style='color:GreenYellow; font-size: 70px;'>正确! </span>","null","","","","","","","","","","","","","","","","","","","","","","","","","feedback_test","",""
"","","","","","psychophysics","101","359506","0.0-7.1-0.1-0.44","642","","arrowright","","","","","","","","","","","","","key","arrowright","16.6653061224491","640","356","arrowleft","false","../../test_img/15.png","生人","prac_matching_task","自我","[""<img src=\""../../test_img/26.png\"" width=150 style=\""vertical-align:middle\"">---朋友"",""<img src=\""../../test_img/22.png\"" width=150 style=\""vertical-align:middle\"">---生人"",""<img src=\""../../test_img/15.png\"" width=150 style=\""vertical-align:middle\"">---自我""]","","",""
"","","","","","html-keyboard-response","102","359816","0.0-7.1-0.1-1.44","null","<span style='color:red; font-size: 70px;'>错误! </span>","null","","","","","","","","","","","","","","","","","","","","","","","","","feedback_test","",""
"","","","","","psychophysics","103","361797","0.0-7.1-0.1-0.45","968","","arrowleft","","","","","","","","","","","","","key","arrowleft","16.664406779661213","640","356","arrowleft","true","../../test_img/15.png","朋友","prac_matching_task","自我","[""<img src=\""../../test_img/26.png\"" width=150 style=\""vertical-align:middle\"">---朋友"",""<img src=\""../../test_img/22.png\"" width=150 style=\""vertical-align:middle\"">---生人"",""<img src=\""../../test_img/15.png\"" width=150 style=\""vertical-align:middle\"">---自我""]","","",""
"","","","","","html-keyboard-response","104","362108","0.0-7.1-0.1-1.45","null","<span style='color:GreenYellow; font-size: 70px;'>正确! </span>","null","","","","","","","","","","","","","","","","","","","","","","","","","feedback_test","",""
"","","","","","psychophysics","105","364509","0.0-7.1-0.1-0.46","1396","","arrowleft","","","","","","","","","","","","","key","arrowleft","16.666433566433486","640","356","arrowleft","true","../../test_img/22.png","自我","prac_matching_task","生人","[""<img src=\""../../test_img/26.png\"" width=150 style=\""vertical-align:middle\"">---朋友"",""<img src=\""../../test_img/22.png\"" width=150 style=\""vertical-align:middle\"">---生人"",""<img src=\""../../test_img/15.png\"" width=150 style=\""vertical-align:middle\"">---自我""]","","",""
"","","","","","html-keyboard-response","106","364820","0.0-7.1-0.1-1.46","null","<span style='color:GreenYellow; font-size: 70px;'>正确! </span>","null","","","","","","","","","","","","","","","","","","","","","","","","","feedback_test","",""
"","","","","","psychophysics","107","366687","0.0-7.1-0.1-0.47","857","","arrowleft","","","","","","","","","","","","","key","arrowleft","16.663063063063376","640","356","arrowright","false","../../test_img/22.png","生人","prac_matching_task","生人","[""<img src=\""../../test_img/26.png\"" width=150 style=\""vertical-align:middle\"">---朋友"",""<img src=\""../../test_img/22.png\"" width=150 style=\""vertical-align:middle\"">---生人"",""<img src=\""../../test_img/15.png\"" width=150 style=\""vertical-align:middle\"">---自我""]","","",""
"","","","","","html-keyboard-response","108","366998","0.0-7.1-0.1-1.47","null","<span style='color:red; font-size: 70px;'>错误! </span>","null","","","","","","","","","","","","","","","","","","","","","","","","","feedback_test","",""
"","","","","","html-keyboard-response","109","368840","0.0-7.1-1.1-0.1","1839","<style>.context{color:white; font-size: 35px; line-height:40px}</style>                          <div><p class='context'>您正确回答了58% 的试次。</p ><p class='context'>您的平均反应时为1017毫秒。</p >"," ","","","","","","","","","","","","","","","","","","","","","","","","","","",""
"","","","","","instructions","110","390964","0.0-7.1-1.1-1.1","22123","","","","","","","","","","","","","","[{""page_index"":0,""viewing_time"":1138},{""page_index"":1,""viewing_time"":19272},{""page_index"":2,""viewing_time"":904},{""page_index"":3,""viewing_time"":809}]","","","","","","","","","","","","","","",""
"","","","","","psychophysics","111","393196","0.0-7.2-0.2-0.48","1221","","arrowright","","","","","","","","","","","","","key","arrowright","16.660902255638835","640","356","arrowright","true","../../test_img/26.png","朋友","prac_matching_task","朋友","[""<img src=\""../../test_img/26.png\"" width=150 style=\""vertical-align:middle\"">---朋友"",""<img src=\""../../test_img/22.png\"" width=150 style=\""vertical-align:middle\"">---生人"",""<img src=\""../../test_img/15.png\"" width=150 style=\""vertical-align:middle\"">---自我""]","","",""
"","","","","","html-keyboard-response","112","393502","0.0-7.2-0.2-1.48","null","<span style='color:GreenYellow; font-size: 70px;'>正确! </span>","null","","","","","","","","","","","","","","","","","","","","","","","","","feedback_test","",""
"","","","","","psychophysics","113","395208","0.0-7.2-0.2-0.49","700","","arrowright","","","","","","","","","","","","","key","arrowright","16.663366336633665","640","356","arrowright","true","../../test_img/15.png","自我","prac_matching_task","自我","[""<img src=\""../../test_img/26.png\"" width=150 style=\""vertical-align:middle\"">---朋友"",""<img src=\""../../test_img/22.png\"" width=150 style=\""vertical-align:middle\"">---生人"",""<img src=\""../../test_img/15.png\"" width=150 style=\""vertical-align:middle\"">---自我""]","","",""
"","","","","","html-keyboard-response","114","395517","0.0-7.2-0.2-1.49","null","<span style='color:GreenYellow; font-size: 70px;'>正确! </span>","null","","","","","","","","","","","","","","","","","","","","","","","","","feedback_test","",""
"","","","","","psychophysics","115","397319","0.0-7.2-0.2-0.50","795","","arrowleft","","","","","","","","","","","","","key","arrowleft","16.65981308411193","640","356","arrowleft","true","../../test_img/15.png","朋友","prac_matching_task","自我","[""<img src=\""../../test_img/26.png\"" width=150 style=\""vertical-align:middle\"">---朋友"",""<img src=\""../../test_img/22.png\"" width=150 style=\""vertical-align:middle\"">---生人"",""<img src=\""../../test_img/15.png\"" width=150 style=\""vertical-align:middle\"">---自我""]","","",""
"","","","","","html-keyboard-response","116","397637","0.0-7.2-0.2-1.50","null","<span style='color:GreenYellow; font-size: 70px;'>正确! </span>","null","","","","","","","","","","","","","","","","","","","","","","","","","feedback_test","",""
"","","","","","psychophysics","117","400141","0.0-7.2-0.2-0.51","null","","null","","","","","","","","","","","","","key","null","16.665100671140785","640","356","arrowright","false","../../test_img/26.png","朋友","prac_matching_task","朋友","[""<img src=\""../../test_img/26.png\"" width=150 style=\""vertical-align:middle\"">---朋友"",""<img src=\""../../test_img/22.png\"" width=150 style=\""vertical-align:middle\"">---生人"",""<img src=\""../../test_img/15.png\"" width=150 style=\""vertical-align:middle\"">---自我""]","","",""
"","","","","","html-keyboard-response","118","400453","0.0-7.2-0.2-1.51","null","<span class='add_' style='color:yellow; font-size: 70px;'> 太慢! </span>","null","","","","","","","","","","","","","","","","","","","","","","","","","feedback_test","",""
"","","","","","psychophysics","119","402416","0.0-7.2-0.2-0.52","947","","arrowright","","","","","","","","","","","","","key","arrowright","16.663247863248163","640","356","arrowright","true","../../test_img/22.png","生人","prac_matching_task","生人","[""<img src=\""../../test_img/26.png\"" width=150 style=\""vertical-align:middle\"">---朋友"",""<img src=\""../../test_img/22.png\"" width=150 style=\""vertical-align:middle\"">---生人"",""<img src=\""../../test_img/15.png\"" width=150 style=\""vertical-align:middle\"">---自我""]","","",""
"","","","","","html-keyboard-response","120","402721","0.0-7.2-0.2-1.52","null","<span style='color:GreenYellow; font-size: 70px;'>正确! </span>","null","","","","","","","","","","","","","","","","","","","","","","","","","feedback_test","",""
"","","","","","psychophysics","121","404541","0.0-7.2-0.2-0.53","818","","arrowright","","","","","","","","","","","","","key","arrowright","16.663302752293472","640","356","arrowleft","false","../../test_img/22.png","朋友","prac_matching_task","生人","[""<img src=\""../../test_img/26.png\"" width=150 style=\""vertical-align:middle\"">---朋友"",""<img src=\""../../test_img/22.png\"" width=150 style=\""vertical-align:middle\"">---生人"",""<img src=\""../../test_img/15.png\"" width=150 style=\""vertical-align:middle\"">---自我""]","","",""
"","","","","","html-keyboard-response","122","404854","0.0-7.2-0.2-1.53","null","<span style='color:red; font-size: 70px;'>错误! </span>","null","","","","","","","","","","","","","","","","","","","","","","","","","feedback_test","",""
"","","","","","psychophysics","123","406778","0.0-7.2-0.2-0.54","923","","arrowright","","","","","","","","","","","","","key","arrowright","16.660869565217393","640","356","arrowleft","false","../../test_img/26.png","生人","prac_matching_task","朋友","[""<img src=\""../../test_img/26.png\"" width=150 style=\""vertical-align:middle\"">---朋友"",""<img src=\""../../test_img/22.png\"" width=150 style=\""vertical-align:middle\"">---生人"",""<img src=\""../../test_img/15.png\"" width=150 style=\""vertical-align:middle\"">---自我""]","","",""
"","","","","","html-keyboard-response","124","407083","0.0-7.2-0.2-1.54","null","<span style='color:red; font-size: 70px;'>错误! </span>","null","","","","","","","","","","","","","","","","","","","","","","","","","feedback_test","",""
"","","","","","psychophysics","125","409079","0.0-7.2-0.2-0.55","989","","arrowleft","","","","","","","","","","","","","key","arrowleft","16.66386554621849","640","356","arrowleft","true","../../test_img/15.png","生人","prac_matching_task","自我","[""<img src=\""../../test_img/26.png\"" width=150 style=\""vertical-align:middle\"">---朋友"",""<img src=\""../../test_img/22.png\"" width=150 style=\""vertical-align:middle\"">---生人"",""<img src=\""../../test_img/15.png\"" width=150 style=\""vertical-align:middle\"">---自我""]","","",""
"","","","","","html-keyboard-response","126","409380","0.0-7.2-0.2-1.55","null","<span style='color:GreenYellow; font-size: 70px;'>正确! </span>","null","","","","","","","","","","","","","","","","","","","","","","","","","feedback_test","",""
"","","","","","psychophysics","127","411229","0.0-7.2-0.2-0.56","840","","arrowright","","","","","","","","","","","","","key","arrowright","16.662727272727484","640","356","arrowright","true","../../test_img/15.png","自我","prac_matching_task","自我","[""<img src=\""../../test_img/26.png\"" width=150 style=\""vertical-align:middle\"">---朋友"",""<img src=\""../../test_img/22.png\"" width=150 style=\""vertical-align:middle\"">---生人"",""<img src=\""../../test_img/15.png\"" width=150 style=\""vertical-align:middle\"">---自我""]","","",""
"","","","","","html-keyboard-response","128","411531","0.0-7.2-0.2-1.56","null","<span style='color:GreenYellow; font-size: 70px;'>正确! </span>","null","","","","","","","","","","","","","","","","","","","","","","","","","feedback_test","",""
"","","","","","psychophysics","129","413363","0.0-7.2-0.2-0.57","825","","arrowleft","","","","","","","","","","","","","key","arrowleft","16.663302752293472","640","356","arrowleft","true","../../test_img/22.png","自我","prac_matching_task","生人","[""<img src=\""../../test_img/26.png\"" width=150 style=\""vertical-align:middle\"">---朋友"",""<img src=\""../../test_img/22.png\"" width=150 style=\""vertical-align:middle\"">---生人"",""<img src=\""../../test_img/15.png\"" width=150 style=\""vertical-align:middle\"">---自我""]","","",""
"","","","","","html-keyboard-response","130","413669","0.0-7.2-0.2-1.57","null","<span style='color:GreenYellow; font-size: 70px;'>正确! </span>","null","","","","","","","","","","","","","","","","","","","","","","","","","feedback_test","",""
"","","","","","psychophysics","131","415700","0.0-7.2-0.2-0.58","1029","","arrowright","","","","","","","","","","","","","key","arrowright","16.66446280991755","640","356","arrowleft","false","../../test_img/26.png","自我","prac_matching_task","朋友","[""<img src=\""../../test_img/26.png\"" width=150 style=\""vertical-align:middle\"">---朋友"",""<img src=\""../../test_img/22.png\"" width=150 style=\""vertical-align:middle\"">---生人"",""<img src=\""../../test_img/15.png\"" width=150 style=\""vertical-align:middle\"">---自我""]","","",""
"","","","","","html-keyboard-response","132","416005","0.0-7.2-0.2-1.58","null","<span style='color:red; font-size: 70px;'>错误! </span>","null","","","","","","","","","","","","","","","","","","","","","","","","","feedback_test","",""
"","","","","","psychophysics","133","418026","0.0-7.2-0.2-0.59","1006","","arrowright","","","","","","","","","","","","","key","arrowright","16.664166666666762","640","356","arrowright","true","../../test_img/22.png","生人","prac_matching_task","生人","[""<img src=\""../../test_img/26.png\"" width=150 style=\""vertical-align:middle\"">---朋友"",""<img src=\""../../test_img/22.png\"" width=150 style=\""vertical-align:middle\"">---生人"",""<img src=\""../../test_img/15.png\"" width=150 style=\""vertical-align:middle\"">---自我""]","","",""
"","","","","","html-keyboard-response","134","418336","0.0-7.2-0.2-1.59","null","<span style='color:GreenYellow; font-size: 70px;'>正确! </span>","null","","","","","","","","","","","","","","","","","","","","","","","","","feedback_test","",""
"","","","","","psychophysics","135","420199","0.0-7.2-0.2-0.60","850","","arrowleft","","","","","","","","","","","","","key","arrowleft","16.667272727272938","640","356","arrowleft","true","../../test_img/15.png","生人","prac_matching_task","自我","[""<img src=\""../../test_img/26.png\"" width=150 style=\""vertical-align:middle\"">---朋友"",""<img src=\""../../test_img/22.png\"" width=150 style=\""vertical-align:middle\"">---生人"",""<img src=\""../../test_img/15.png\"" width=150 style=\""vertical-align:middle\"">---自我""]","","",""
"","","","","","html-keyboard-response","136","420508","0.0-7.2-0.2-1.60","null","<span style='color:GreenYellow; font-size: 70px;'>正确! </span>","null","","","","","","","","","","","","","","","","","","","","","","","","","feedback_test","",""
"","","","","","psychophysics","137","422525","0.0-7.2-0.2-0.61","1006","","arrowright","","","","","","","","","","","","","key","arrowright","16.665833333333044","640","356","arrowright","true","../../test_img/22.png","生人","prac_matching_task","生人","[""<img src=\""../../test_img/26.png\"" width=150 style=\""vertical-align:middle\"">---朋友"",""<img src=\""../../test_img/22.png\"" width=150 style=\""vertical-align:middle\"">---生人"",""<img src=\""../../test_img/15.png\"" width=150 style=\""vertical-align:middle\"">---自我""]","","",""
"","","","","","html-keyboard-response","138","422830","0.0-7.2-0.2-1.61","null","<span style='color:GreenYellow; font-size: 70px;'>正确! </span>","null","","","","","","","","","","","","","","","","","","","","","","","","","feedback_test","",""
"","","","","","psychophysics","139","424533","0.0-7.2-0.2-0.62","696","","arrowright","","","","","","","","","","","","","key","arrowright","16.66435643564391","640","356","arrowright","true","../../test_img/15.png","自我","prac_matching_task","自我","[""<img src=\""../../test_img/26.png\"" width=150 style=\""vertical-align:middle\"">---朋友"",""<img src=\""../../test_img/22.png\"" width=150 style=\""vertical-align:middle\"">---生人"",""<img src=\""../../test_img/15.png\"" width=150 style=\""vertical-align:middle\"">---自我""]","","",""
"","","","","","html-keyboard-response","140","424849","0.0-7.2-0.2-1.62","null","<span style='color:GreenYellow; font-size: 70px;'>正确! </span>","null","","","","","","","","","","","","","","","","","","","","","","","","","feedback_test","",""
"","","","","","psychophysics","141","426735","0.0-7.2-0.2-0.63","884","","arrowleft","","","","","","","","","","","","","key","arrowleft","16.664285714285402","640","356","arrowleft","true","../../test_img/22.png","自我","prac_matching_task","生人","[""<img src=\""../../test_img/26.png\"" width=150 style=\""vertical-align:middle\"">---朋友"",""<img src=\""../../test_img/22.png\"" width=150 style=\""vertical-align:middle\"">---生人"",""<img src=\""../../test_img/15.png\"" width=150 style=\""vertical-align:middle\"">---自我""]","","",""
"","","","","","html-keyboard-response","142","427050","0.0-7.2-0.2-1.63","null","<span style='color:GreenYellow; font-size: 70px;'>正确! </span>","null","","","","","","","","","","","","","","","","","","","","","","","","","feedback_test","",""
"","","","","","psychophysics","143","428732","0.0-7.2-0.2-0.64","680","","arrowright","","","","","","","","","","","","","key","arrowright","16.664000000000232","640","356","arrowleft","false","../../test_img/15.png","朋友","prac_matching_task","自我","[""<img src=\""../../test_img/26.png\"" width=150 style=\""vertical-align:middle\"">---朋友"",""<img src=\""../../test_img/22.png\"" width=150 style=\""vertical-align:middle\"">---生人"",""<img src=\""../../test_img/15.png\"" width=150 style=\""vertical-align:middle\"">---自我""]","","",""
"","","","","","html-keyboard-response","144","429037","0.0-7.2-0.2-1.64","null","<span style='color:red; font-size: 70px;'>错误! </span>","null","","","","","","","","","","","","","","","","","","","","","","","","","feedback_test","",""
"","","","","","psychophysics","145","430815","0.0-7.2-0.2-0.65","768","","arrowright","","","","","","","","","","","","","key","arrowright","16.663809523809636","640","356","arrowright","true","../../test_img/26.png","朋友","prac_matching_task","朋友","[""<img src=\""../../test_img/26.png\"" width=150 style=\""vertical-align:middle\"">---朋友"",""<img src=\""../../test_img/22.png\"" width=150 style=\""vertical-align:middle\"">---生人"",""<img src=\""../../test_img/15.png\"" width=150 style=\""vertical-align:middle\"">---自我""]","","",""
"","","","","","html-keyboard-response","146","431119","0.0-7.2-0.2-1.65","null","<span style='color:GreenYellow; font-size: 70px;'>正确! </span>","null","","","","","","","","","","","","","","","","","","","","","","","","","feedback_test","",""
"","","","","","psychophysics","147","432908","0.0-7.2-0.2-0.66","785","","arrowright","","","","","","","","","","","","","key","arrowright","16.662264150943507","640","356","arrowleft","false","../../test_img/26.png","生人","prac_matching_task","朋友","[""<img src=\""../../test_img/26.png\"" width=150 style=\""vertical-align:middle\"">---朋友"",""<img src=\""../../test_img/22.png\"" width=150 style=\""vertical-align:middle\"">---生人"",""<img src=\""../../test_img/15.png\"" width=150 style=\""vertical-align:middle\"">---自我""]","","",""
"","","","","","html-keyboard-response","148","433213","0.0-7.2-0.2-1.66","null","<span style='color:red; font-size: 70px;'>错误! </span>","null","","","","","","","","","","","","","","","","","","","","","","","","","feedback_test","",""
"","","","","","psychophysics","149","434829","0.0-7.2-0.2-0.67","612","","arrowright","","","","","","","","","","","","","key","arrowright","16.663541666666788","640","356","arrowright","true","../../test_img/15.png","自我","prac_matching_task","自我","[""<img src=\""../../test_img/26.png\"" width=150 style=\""vertical-align:middle\"">---朋友"",""<img src=\""../../test_img/22.png\"" width=150 style=\""vertical-align:middle\"">---生人"",""<img src=\""../../test_img/15.png\"" width=150 style=\""vertical-align:middle\"">---自我""]","","",""
"","","","","","html-keyboard-response","150","435144","0.0-7.2-0.2-1.67","null","<span style='color:GreenYellow; font-size: 70px;'>正确! </span>","null","","","","","","","","","","","","","","","","","","","","","","","","","feedback_test","",""
"","","","","","psychophysics","151","437652","0.0-7.2-0.2-0.68","null","","null","","","","","","","","","","","","","key","null","16.663333333333334","640","356","arrowright","false","../../test_img/26.png","朋友","prac_matching_task","朋友","[""<img src=\""../../test_img/26.png\"" width=150 style=\""vertical-align:middle\"">---朋友"",""<img src=\""../../test_img/22.png\"" width=150 style=\""vertical-align:middle\"">---生人"",""<img src=\""../../test_img/15.png\"" width=150 style=\""vertical-align:middle\"">---自我""]","","",""
"","","","","","html-keyboard-response","152","437959","0.0-7.2-0.2-1.68","null","<span class='add_' style='color:yellow; font-size: 70px;'> 太慢! </span>","null","","","","","","","","","","","","","","","","","","","","","","","","","feedback_test","",""
"","","","","","psychophysics","153","439981","0.0-7.2-0.2-0.69","1013","","arrowright","","","","","","","","","","","","","key","arrowright","16.664999999999903","640","356","arrowright","true","../../test_img/22.png","生人","prac_matching_task","生人","[""<img src=\""../../test_img/26.png\"" width=150 style=\""vertical-align:middle\"">---朋友"",""<img src=\""../../test_img/22.png\"" width=150 style=\""vertical-align:middle\"">---生人"",""<img src=\""../../test_img/15.png\"" width=150 style=\""vertical-align:middle\"">---自我""]","","",""
"","","","","","html-keyboard-response","154","440297","0.0-7.2-0.2-1.69","null","<span style='color:GreenYellow; font-size: 70px;'>正确! </span>","null","","","","","","","","","","","","","","","","","","","","","","","","","feedback_test","",""
"","","","","","psychophysics","155","442124","0.0-7.2-0.2-0.70","824","","arrowleft","","","","","","","","","","","","","key","arrowleft","16.664220183486453","640","356","arrowleft","true","../../test_img/22.png","朋友","prac_matching_task","生人","[""<img src=\""../../test_img/26.png\"" width=150 style=\""vertical-align:middle\"">---朋友"",""<img src=\""../../test_img/22.png\"" width=150 style=\""vertical-align:middle\"">---生人"",""<img src=\""../../test_img/15.png\"" width=150 style=\""vertical-align:middle\"">---自我""]","","",""
"","","","","","html-keyboard-response","156","442425","0.0-7.2-0.2-1.70","null","<span style='color:GreenYellow; font-size: 70px;'>正确! </span>","null","","","","","","","","","","","","","","","","","","","","","","","","","feedback_test","",""
"","","","","","psychophysics","157","444639","0.0-7.2-0.2-0.71","1206","","arrowright","","","","","","","","","","","","","key","arrowright","16.664393939394028","640","356","arrowleft","false","../../test_img/26.png","自我","prac_matching_task","朋友","[""<img src=\""../../test_img/26.png\"" width=150 style=\""vertical-align:middle\"">---朋友"",""<img src=\""../../test_img/22.png\"" width=150 style=\""vertical-align:middle\"">---生人"",""<img src=\""../../test_img/15.png\"" width=150 style=\""vertical-align:middle\"">---自我""]","","",""
"","","","","","html-keyboard-response","158","444949","0.0-7.2-0.2-1.71","null","<span style='color:red; font-size: 70px;'>错误! </span>","null","","","","","","","","","","","","","","","","","","","","","","","","","feedback_test","",""
"","","","","","html-keyboard-response","159","449411","0.0-7.2-1.2-0.2","4459","<style>.context{color:white; font-size: 35px; line-height:40px}</style>                          <div><p class='context'>您正确回答了67% 的试次。</p ><p class='context'>您的平均反应时为874毫秒。</p >"," ","","","","","","","","","","","","","","","","","","","","","","","","","","",""
"","","","","","instructions","160","470182","0.0-7.2-1.2-1.2","20767","","","","","","","","","","","","","","[{""page_index"":0,""viewing_time"":1213},{""page_index"":1,""viewing_time"":17544},{""page_index"":2,""viewing_time"":984},{""page_index"":3,""viewing_time"":1026}]","","","","","","","","","","","","","","",""
"","","","","","psychophysics","161","471993","0.0-7.3-0.3-0.72","797","","arrowleft","","","","","","","","","","","","","key","arrowleft","16.66355140186916","640","356","arrowleft","true","../../test_img/22.png","朋友","prac_matching_task","生人","[""<img src=\""../../test_img/26.png\"" width=150 style=\""vertical-align:middle\"">---朋友"",""<img src=\""../../test_img/22.png\"" width=150 style=\""vertical-align:middle\"">---生人"",""<img src=\""../../test_img/15.png\"" width=150 style=\""vertical-align:middle\"">---自我""]","","",""
"","","","","","html-keyboard-response","162","472296","0.0-7.3-0.3-1.72","null","<span style='color:GreenYellow; font-size: 70px;'>正确! </span>","null","","","","","","","","","","","","","","","","","","","","","","","","","feedback_test","",""
"","","","","","psychophysics","163","474189","0.0-7.3-0.3-0.73","890","","arrowright","","","","","","","","","","","","","key","arrowright","16.665178571428573","640","356","arrowleft","false","../../test_img/22.png","自我","prac_matching_task","生人","[""<img src=\""../../test_img/26.png\"" width=150 style=\""vertical-align:middle\"">---朋友"",""<img src=\""../../test_img/22.png\"" width=150 style=\""vertical-align:middle\"">---生人"",""<img src=\""../../test_img/15.png\"" width=150 style=\""vertical-align:middle\"">---自我""]","","",""
"","","","","","html-keyboard-response","164","474496","0.0-7.3-0.3-1.73","null","<span style='color:red; font-size: 70px;'>错误! </span>","null","","","","","","","","","","","","","","","","","","","","","","","","","feedback_test","",""
"","","","","","psychophysics","165","476122","0.0-7.3-0.3-0.74","624","","arrowright","","","","","","","","","","","","","key","arrowright","16.664583333333212","640","356","arrowright","true","../../test_img/15.png","自我","prac_matching_task","自我","[""<img src=\""../../test_img/26.png\"" width=150 style=\""vertical-align:middle\"">---朋友"",""<img src=\""../../test_img/22.png\"" width=150 style=\""vertical-align:middle\"">---生人"",""<img src=\""../../test_img/15.png\"" width=150 style=\""vertical-align:middle\"">---自我""]","","",""
"","","","","","html-keyboard-response","166","476426","0.0-7.3-0.3-1.74","null","<span style='color:GreenYellow; font-size: 70px;'>正确! </span>","null","","","","","","","","","","","","","","","","","","","","","","","","","feedback_test","",""
"","","","","","psychophysics","167","478803","0.0-7.3-0.3-0.75","1375","","arrowright","","","","","","","","","","","","","key","arrowright","16.65744680851072","640","356","arrowleft","false","../../test_img/26.png","生人","prac_matching_task","朋友","[""<img src=\""../../test_img/26.png\"" width=150 style=\""vertical-align:middle\"">---朋友"",""<img src=\""../../test_img/22.png\"" width=150 style=\""vertical-align:middle\"">---生人"",""<img src=\""../../test_img/15.png\"" width=150 style=\""vertical-align:middle\"">---自我""]","","",""
"","","","","","html-keyboard-response","168","479109","0.0-7.3-0.3-1.75","null","<span style='color:red; font-size: 70px;'>错误! </span>","null","","","","","","","","","","","","","","","","","","","","","","","","","feedback_test","",""
"","","","","","psychophysics","169","480842","0.0-7.3-0.3-0.76","731","","arrowright","","","","","","","","","","","","","key","arrowright","16.659803921568514","640","356","arrowright","true","../../test_img/15.png","自我","prac_matching_task","自我","[""<img src=\""../../test_img/26.png\"" width=150 style=\""vertical-align:middle\"">---朋友"",""<img src=\""../../test_img/22.png\"" width=150 style=\""vertical-align:middle\"">---生人"",""<img src=\""../../test_img/15.png\"" width=150 style=\""vertical-align:middle\"">---自我""]","","",""
"","","","","","html-keyboard-response","170","481156","0.0-7.3-0.3-1.76","null","<span style='color:GreenYellow; font-size: 70px;'>正确! </span>","null","","","","","","","","","","","","","","","","","","","","","","","","","feedback_test","",""
"","","","","","psychophysics","171","483032","0.0-7.3-0.3-0.77","872","","arrowleft","","","","","","","","","","","","","key","arrowleft","16.66696428571387","640","356","arrowleft","true","../../test_img/15.png","朋友","prac_matching_task","自我","[""<img src=\""../../test_img/26.png\"" width=150 style=\""vertical-align:middle\"">---朋友"",""<img src=\""../../test_img/22.png\"" width=150 style=\""vertical-align:middle\"">---生人"",""<img src=\""../../test_img/15.png\"" width=150 style=\""vertical-align:middle\"">---自我""]","","",""
"","","","","","html-keyboard-response","172","483334","0.0-7.3-0.3-1.77","null","<span style='color:GreenYellow; font-size: 70px;'>正确! </span>","null","","","","","","","","","","","","","","","","","","","","","","","","","feedback_test","",""
"","","","","","psychophysics","173","485284","0.0-7.3-0.3-0.78","945","","arrowright","","","","","","","","","","","","","key","arrowright","16.66293103448296","640","356","arrowright","true","../../test_img/22.png","生人","prac_matching_task","生人","[""<img src=\""../../test_img/26.png\"" width=150 style=\""vertical-align:middle\"">---朋友"",""<img src=\""../../test_img/22.png\"" width=150 style=\""vertical-align:middle\"">---生人"",""<img src=\""../../test_img/15.png\"" width=150 style=\""vertical-align:middle\"">---自我""]","","",""
"","","","","","html-keyboard-response","174","485586","0.0-7.3-0.3-1.78","null","<span style='color:GreenYellow; font-size: 70px;'>正确! </span>","null","","","","","","","","","","","","","","","","","","","","","","","","","feedback_test","",""
"","","","","","psychophysics","175","487668","0.0-7.3-0.3-0.79","1075","","arrowright","","","","","","","","","","","","","key","arrowright","16.66370967741926","640","356","arrowright","true","../../test_img/26.png","朋友","prac_matching_task","朋友","[""<img src=\""../../test_img/26.png\"" width=150 style=\""vertical-align:middle\"">---朋友"",""<img src=\""../../test_img/22.png\"" width=150 style=\""vertical-align:middle\"">---生人"",""<img src=\""../../test_img/15.png\"" width=150 style=\""vertical-align:middle\"">---自我""]","","",""
"","","","","","html-keyboard-response","176","487976","0.0-7.3-0.3-1.79","null","<span style='color:GreenYellow; font-size: 70px;'>正确! </span>","null","","","","","","","","","","","","","","","","","","","","","","","","","feedback_test","",""
"","","","","","psychophysics","177","490299","0.0-7.3-0.3-0.80","1322","","arrowright","","","","","","","","","","","","","key","arrowright","16.66449275362327","640","356","arrowright","true","../../test_img/22.png","生人","prac_matching_task","生人","[""<img src=\""../../test_img/26.png\"" width=150 style=\""vertical-align:middle\"">---朋友"",""<img src=\""../../test_img/22.png\"" width=150 style=\""vertical-align:middle\"">---生人"",""<img src=\""../../test_img/15.png\"" width=150 style=\""vertical-align:middle\"">---自我""]","","",""
"","","","","","html-keyboard-response","178","490608","0.0-7.3-0.3-1.80","null","<span style='color:GreenYellow; font-size: 70px;'>正确! </span>","null","","","","","","","","","","","","","","","","","","","","","","","","","feedback_test","",""
"","","","","","psychophysics","179","492367","0.0-7.3-0.3-0.81","757","","arrowleft","","","","","","","","","","","","","key","arrowleft","16.66346153846154","640","356","arrowleft","true","../../test_img/15.png","生人","prac_matching_task","自我","[""<img src=\""../../test_img/26.png\"" width=150 style=\""vertical-align:middle\"">---朋友"",""<img src=\""../../test_img/22.png\"" width=150 style=\""vertical-align:middle\"">---生人"",""<img src=\""../../test_img/15.png\"" width=150 style=\""vertical-align:middle\"">---自我""]","","",""
"","","","","","html-keyboard-response","180","492672","0.0-7.3-0.3-1.81","null","<span style='color:GreenYellow; font-size: 70px;'>正确! </span>","null","","","","","","","","","","","","","","","","","","","","","","","","","feedback_test","",""
"","","","","","psychophysics","181","494912","0.0-7.3-0.3-0.82","1236","","arrowleft","","","","","","","","","","","","","key","arrowleft","16.66417910447761","640","356","arrowleft","true","../../test_img/26.png","自我","prac_matching_task","朋友","[""<img src=\""../../test_img/26.png\"" width=150 style=\""vertical-align:middle\"">---朋友"",""<img src=\""../../test_img/22.png\"" width=150 style=\""vertical-align:middle\"">---生人"",""<img src=\""../../test_img/15.png\"" width=150 style=\""vertical-align:middle\"">---自我""]","","",""
"","","","","","html-keyboard-response","182","495213","0.0-7.3-0.3-1.82","null","<span style='color:GreenYellow; font-size: 70px;'>正确! </span>","null","","","","","","","","","","","","","","","","","","","","","","","","","feedback_test","",""
"","","","","","psychophysics","183","497192","0.0-7.3-0.3-0.83","966","","arrowright","","","","","","","","","","","","","key","arrowright","16.661016949152543","640","356","arrowright","true","../../test_img/26.png","朋友","prac_matching_task","朋友","[""<img src=\""../../test_img/26.png\"" width=150 style=\""vertical-align:middle\"">---朋友"",""<img src=\""../../test_img/22.png\"" width=150 style=\""vertical-align:middle\"">---生人"",""<img src=\""../../test_img/15.png\"" width=150 style=\""vertical-align:middle\"">---自我""]","","",""
"","","","","","html-keyboard-response","184","497495","0.0-7.3-0.3-1.83","null","<span style='color:GreenYellow; font-size: 70px;'>正确! </span>","null","","","","","","","","","","","","","","","","","","","","","","","","","feedback_test","",""
"","","","","","psychophysics","185","499283","0.0-7.3-0.3-0.84","775","","arrowleft","","","","","","","","","","","","","key","arrowleft","16.6632075471697","640","356","arrowleft","true","../../test_img/26.png","生人","prac_matching_task","朋友","[""<img src=\""../../test_img/26.png\"" width=150 style=\""vertical-align:middle\"">---朋友"",""<img src=\""../../test_img/22.png\"" width=150 style=\""vertical-align:middle\"">---生人"",""<img src=\""../../test_img/15.png\"" width=150 style=\""vertical-align:middle\"">---自我""]","","",""
"","","","","","html-keyboard-response","186","499591","0.0-7.3-0.3-1.84","null","<span style='color:GreenYellow; font-size: 70px;'>正确! </span>","null","","","","","","","","","","","","","","","","","","","","","","","","","feedback_test","",""
"","","","","","psychophysics","187","501497","0.0-7.3-0.3-0.85","897","","arrowleft","","","","","","","","","","","","","key","arrowleft","16.664601769911812","640","356","arrowleft","true","../../test_img/22.png","朋友","prac_matching_task","生人","[""<img src=\""../../test_img/26.png\"" width=150 style=\""vertical-align:middle\"">---朋友"",""<img src=\""../../test_img/22.png\"" width=150 style=\""vertical-align:middle\"">---生人"",""<img src=\""../../test_img/15.png\"" width=150 style=\""vertical-align:middle\"">---自我""]","","",""
"","","","","","html-keyboard-response","188","501802","0.0-7.3-0.3-1.85","null","<span style='color:GreenYellow; font-size: 70px;'>正确! </span>","null","","","","","","","","","","","","","","","","","","","","","","","","","feedback_test","",""
"","","","","","psychophysics","189","503608","0.0-7.3-0.3-0.86","801","","arrowright","","","","","","","","","","","","","key","arrowright","16.665740740740958","640","356","arrowright","true","../../test_img/26.png","朋友","prac_matching_task","朋友","[""<img src=\""../../test_img/26.png\"" width=150 style=\""vertical-align:middle\"">---朋友"",""<img src=\""../../test_img/22.png\"" width=150 style=\""vertical-align:middle\"">---生人"",""<img src=\""../../test_img/15.png\"" width=150 style=\""vertical-align:middle\"">---自我""]","","",""
"","","","","","html-keyboard-response","190","503916","0.0-7.3-0.3-1.86","null","<span style='color:GreenYellow; font-size: 70px;'>正确! </span>","null","","","","","","","","","","","","","","","","","","","","","","","","","feedback_test","",""
"","","","","","psychophysics","191","505597","0.0-7.3-0.3-0.87","675","","arrowright","","","","","","","","","","","","","key","arrowright","16.664000000000232","640","356","arrowright","true","../../test_img/26.png","朋友","prac_matching_task","朋友","[""<img src=\""../../test_img/26.png\"" width=150 style=\""vertical-align:middle\"">---朋友"",""<img src=\""../../test_img/22.png\"" width=150 style=\""vertical-align:middle\"">---生人"",""<img src=\""../../test_img/15.png\"" width=150 style=\""vertical-align:middle\"">---自我""]","","",""
"","","","","","html-keyboard-response","192","505907","0.0-7.3-0.3-1.87","null","<span style='color:GreenYellow; font-size: 70px;'>正确! </span>","null","","","","","","","","","","","","","","","","","","","","","","","","","feedback_test","",""
"","","","","","psychophysics","193","507658","0.0-7.3-0.3-0.88","734","","arrowleft","","","","","","","","","","","","","key","arrowleft","16.667307692307915","640","356","arrowleft","true","../../test_img/26.png","自我","prac_matching_task","朋友","[""<img src=\""../../test_img/26.png\"" width=150 style=\""vertical-align:middle\"">---朋友"",""<img src=\""../../test_img/22.png\"" width=150 style=\""vertical-align:middle\"">---生人"",""<img src=\""../../test_img/15.png\"" width=150 style=\""vertical-align:middle\"">---自我""]","","",""
"","","","","","html-keyboard-response","194","507963","0.0-7.3-0.3-1.88","null","<span style='color:GreenYellow; font-size: 70px;'>正确! </span>","null","","","","","","","","","","","","","","","","","","","","","","","","","feedback_test","",""
"","","","","","psychophysics","195","509793","0.0-7.3-0.3-0.89","828","","arrowright","","","","","","","","","","","","","key","arrowright","16.664220183486453","640","356","arrowright","true","../../test_img/22.png","生人","prac_matching_task","生人","[""<img src=\""../../test_img/26.png\"" width=150 style=\""vertical-align:middle\"">---朋友"",""<img src=\""../../test_img/22.png\"" width=150 style=\""vertical-align:middle\"">---生人"",""<img src=\""../../test_img/15.png\"" width=150 style=\""vertical-align:middle\"">---自我""]","","",""
"","","","","","html-keyboard-response","196","510096","0.0-7.3-0.3-1.89","null","<span style='color:GreenYellow; font-size: 70px;'>正确! </span>","null","","","","","","","","","","","","","","","","","","","","","","","","","feedback_test","",""
"","","","","","psychophysics","197","511827","0.0-7.3-0.3-0.90","720","","arrowleft","","","","","","","","","","","","","key","arrowleft","16.664077669902575","640","356","arrowleft","true","../../test_img/22.png","自我","prac_matching_task","生人","[""<img src=\""../../test_img/26.png\"" width=150 style=\""vertical-align:middle\"">---朋友"",""<img src=\""../../test_img/22.png\"" width=150 style=\""vertical-align:middle\"">---生人"",""<img src=\""../../test_img/15.png\"" width=150 style=\""vertical-align:middle\"">---自我""]","","",""
"","","","","","html-keyboard-response","198","512140","0.0-7.3-0.3-1.90","null","<span style='color:GreenYellow; font-size: 70px;'>正确! </span>","null","","","","","","","","","","","","","","","","","","","","","","","","","feedback_test","",""
"","","","","","psychophysics","199","513733","0.0-7.3-0.3-0.91","578","","arrowright","","","","","","","","","","","","","key","arrowright","16.661702127659698","640","356","arrowright","true","../../test_img/15.png","自我","prac_matching_task","自我","[""<img src=\""../../test_img/26.png\"" width=150 style=\""vertical-align:middle\"">---朋友"",""<img src=\""../../test_img/22.png\"" width=150 style=\""vertical-align:middle\"">---生人"",""<img src=\""../../test_img/15.png\"" width=150 style=\""vertical-align:middle\"">---自我""]","","",""
"","","","","","html-keyboard-response","200","514046","0.0-7.3-0.3-1.91","null","<span style='color:GreenYellow; font-size: 70px;'>正确! </span>","null","","","","","","","","","","","","","","","","","","","","","","","","","feedback_test","",""
"","","","","","psychophysics","201","516011","0.0-7.3-0.3-0.92","955","","arrowleft","","","","","","","","","","","","","key","arrowleft","16.664102564102663","640","356","arrowleft","true","../../test_img/15.png","生人","prac_matching_task","自我","[""<img src=\""../../test_img/26.png\"" width=150 style=\""vertical-align:middle\"">---朋友"",""<img src=\""../../test_img/22.png\"" width=150 style=\""vertical-align:middle\"">---生人"",""<img src=\""../../test_img/15.png\"" width=150 style=\""vertical-align:middle\"">---自我""]","","",""
"","","","","","html-keyboard-response","202","516314","0.0-7.3-0.3-1.92","null","<span style='color:GreenYellow; font-size: 70px;'>正确! </span>","null","","","","","","","","","","","","","","","","","","","","","","","","","feedback_test","",""
"","","","","","psychophysics","203","518015","0.0-7.3-0.3-0.93","692","","arrowright","","","","","","","","","","","","","key","arrowright","16.66534653465358","640","356","arrowleft","false","../../test_img/15.png","朋友","prac_matching_task","自我","[""<img src=\""../../test_img/26.png\"" width=150 style=\""vertical-align:middle\"">---朋友"",""<img src=\""../../test_img/22.png\"" width=150 style=\""vertical-align:middle\"">---生人"",""<img src=\""../../test_img/15.png\"" width=150 style=\""vertical-align:middle\"">---自我""]","","",""
"","","","","","html-keyboard-response","204","518327","0.0-7.3-0.3-1.93","null","<span style='color:red; font-size: 70px;'>错误! </span>","null","","","","","","","","","","","","","","","","","","","","","","","","","feedback_test","",""
"","","","","","psychophysics","205","520027","0.0-7.3-0.3-0.94","690","","arrowright","","","","","","","","","","","","","key","arrowright","16.66435643564391","640","356","arrowright","true","../../test_img/15.png","自我","prac_matching_task","自我","[""<img src=\""../../test_img/26.png\"" width=150 style=\""vertical-align:middle\"">---朋友"",""<img src=\""../../test_img/22.png\"" width=150 style=\""vertical-align:middle\"">---生人"",""<img src=\""../../test_img/15.png\"" width=150 style=\""vertical-align:middle\"">---自我""]","","",""
"","","","","","html-keyboard-response","206","520336","0.0-7.3-0.3-1.94","null","<span style='color:GreenYellow; font-size: 70px;'>正确! </span>","null","","","","","","","","","","","","","","","","","","","","","","","","","feedback_test","",""
"","","","","","psychophysics","207","522289","0.0-7.3-0.3-0.95","951","","arrowleft","","","","","","","","","","","","","key","arrowleft","16.662393162393162","640","356","arrowright","false","../../test_img/22.png","生人","prac_matching_task","生人","[""<img src=\""../../test_img/26.png\"" width=150 style=\""vertical-align:middle\"">---朋友"",""<img src=\""../../test_img/22.png\"" width=150 style=\""vertical-align:middle\"">---生人"",""<img src=\""../../test_img/15.png\"" width=150 style=\""vertical-align:middle\"">---自我""]","","",""
"","","","","","html-keyboard-response","208","522593","0.0-7.3-0.3-1.95","null","<span style='color:red; font-size: 70px;'>错误! </span>","null","","","","","","","","","","","","","","","","","","","","","","","","","feedback_test","",""
"","","","","","html-keyboard-response","209","537726","0.0-8.0","15130","<style>.context{color:white; font-size: 35px; line-height:40px}</style>                          <div><p class='context'>您正确回答了83% 的试次。</p ><p class='context'>您的平均反应时为849毫秒。</p ><p class='context'>恭喜您完成练习。按任意键进入知觉匹配任务正式实验。</p ><p style = 'color:lightgreen; font-size: 35px;' >正式实验与练习要求相同，请您尽可能又快又准地进行按键反应</p><p class='footer' style='font-size: 22px; line-height:40px;'>请将您右手的<span style='color: lightgreen;'>食指与无名指</span>放在电脑键盘的相应键位上进行按键。</p >"," ","","","","","","","","","","","","","","","","","","","","","","","","","","",""
"","","","","","psychophysics","210","539641","0.0-9.0-0.0-0.0-0.0-0.0","906","","arrowleft","","","","","","","","","","","","","key","arrowleft","16.665789473684416","640","356","arrowleft","true","../../test_img/22.png","朋友","matching_task","生人","[""<img src=\""../../test_img/26.png\"" width=150 style=\""vertical-align:middle\"">---朋友"",""<img src=\""../../test_img/22.png\"" width=150 style=\""vertical-align:middle\"">---生人"",""<img src=\""../../test_img/15.png\"" width=150 style=\""vertical-align:middle\"">---自我""]","","",""
"","","","","","html-keyboard-response","211","540148","0.0-9.0-0.0-0.0-0.0-1.0","null","<span style='color:GreenYellow; font-size: 70px;'>正确! </span>","null","","","","","","","","","","","","","","","","","","","","","","","","","feedback_test","",""
"","","","","","psychophysics","212","542178","0.0-9.0-0.0-0.0-0.0-0.1","1028","","arrowright","","","","","","","","","","","","","key","arrowright","16.667768595041707","640","356","arrowright","true","../../test_img/26.png","朋友","matching_task","朋友","[""<img src=\""../../test_img/26.png\"" width=150 style=\""vertical-align:middle\"">---朋友"",""<img src=\""../../test_img/22.png\"" width=150 style=\""vertical-align:middle\"">---生人"",""<img src=\""../../test_img/15.png\"" width=150 style=\""vertical-align:middle\"">---自我""]","","",""
"","","","","","html-keyboard-response","213","542680","0.0-9.0-0.0-0.0-0.0-1.1","null","<span style='color:GreenYellow; font-size: 70px;'>正确! </span>","null","","","","","","","","","","","","","","","","","","","","","","","","","feedback_test","",""
"","","","","","psychophysics","214","544651","0.0-9.0-0.0-0.0-0.0-0.2","967","","arrowleft","","","","","","","","","","","","","key","arrowleft","16.66186440678045","640","356","arrowleft","true","../../test_img/15.png","生人","matching_task","自我","[""<img src=\""../../test_img/26.png\"" width=150 style=\""vertical-align:middle\"">---朋友"",""<img src=\""../../test_img/22.png\"" width=150 style=\""vertical-align:middle\"">---生人"",""<img src=\""../../test_img/15.png\"" width=150 style=\""vertical-align:middle\"">---自我""]","","",""
"","","","","","html-keyboard-response","215","545157","0.0-9.0-0.0-0.0-0.0-1.2","null","<span style='color:GreenYellow; font-size: 70px;'>正确! </span>","null","","","","","","","","","","","","","","","","","","","","","","","","","feedback_test","",""
"","","","","","psychophysics","216","547287","0.0-9.0-0.0-0.0-0.0-0.3","1119","","arrowright","","","","","","","","","","","","","key","arrowright","16.663779527558503","640","356","arrowright","true","../../test_img/22.png","生人","matching_task","生人","[""<img src=\""../../test_img/26.png\"" width=150 style=\""vertical-align:middle\"">---朋友"",""<img src=\""../../test_img/22.png\"" width=150 style=\""vertical-align:middle\"">---生人"",""<img src=\""../../test_img/15.png\"" width=150 style=\""vertical-align:middle\"">---自我""]","","",""
"","","","","","html-keyboard-response","217","547794","0.0-9.0-0.0-0.0-0.0-1.3","null","<span style='color:GreenYellow; font-size: 70px;'>正确! </span>","null","","","","","","","","","","","","","","","","","","","","","","","","","feedback_test","",""
"","","","","","psychophysics","218","549515","0.0-9.0-0.0-0.0-0.0-0.4","716","","arrowleft","","","","","","","","","","","","","key","arrowleft","16.66372549019562","640","356","arrowleft","true","../../test_img/26.png","自我","matching_task","朋友","[""<img src=\""../../test_img/26.png\"" width=150 style=\""vertical-align:middle\"">---朋友"",""<img src=\""../../test_img/22.png\"" width=150 style=\""vertical-align:middle\"">---生人"",""<img src=\""../../test_img/15.png\"" width=150 style=\""vertical-align:middle\"">---自我""]","","",""
"","","","","","html-keyboard-response","219","550029","0.0-9.0-0.0-0.0-0.0-1.4","null","<span style='color:GreenYellow; font-size: 70px;'>正确! </span>","null","","","","","","","","","","","","","","","","","","","","","","","","","feedback_test","",""
"","","","","","psychophysics","220","551723","0.0-9.0-0.0-0.0-0.0-0.5","690","","arrowright","","","","","","","","","","","","","key","arrowright","16.666336633662674","640","356","arrowright","true","../../test_img/15.png","自我","matching_task","自我","[""<img src=\""../../test_img/26.png\"" width=150 style=\""vertical-align:middle\"">---朋友"",""<img src=\""../../test_img/22.png\"" width=150 style=\""vertical-align:middle\"">---生人"",""<img src=\""../../test_img/15.png\"" width=150 style=\""vertical-align:middle\"">---自我""]","","",""
"","","","","","html-keyboard-response","221","552226","0.0-9.0-0.0-0.0-0.0-1.5","null","<span style='color:GreenYellow; font-size: 70px;'>正确! </span>","null","","","","","","","","","","","","","","","","","","","","","","","","","feedback_test","",""
"","","","","","psychophysics","222","554734","0.0-9.0-0.0-0.0-0.0-0.6","null","","null","","","","","","","","","","","","","key","null","16.663999999999845","640","356","arrowright","false","../../test_img/26.png","朋友","matching_task","朋友","[""<img src=\""../../test_img/26.png\"" width=150 style=\""vertical-align:middle\"">---朋友"",""<img src=\""../../test_img/22.png\"" width=150 style=\""vertical-align:middle\"">---生人"",""<img src=\""../../test_img/15.png\"" width=150 style=\""vertical-align:middle\"">---自我""]","","",""
"","","","","","html-keyboard-response","223","555240","0.0-9.0-0.0-0.0-0.0-1.6","null","<span class='add_' style='color:yellow; font-size: 70px;'> 太慢! </span>","null","","","","","","","","","","","","","","","","","","","","","","","","","feedback_test","",""
"","","","","","psychophysics","224","557022","0.0-9.0-0.0-0.0-0.0-0.7","773","","arrowleft","","","","","","","","","","","","","key","arrowleft","16.664150943396447","640","356","arrowleft","true","../../test_img/22.png","自我","matching_task","生人","[""<img src=\""../../test_img/26.png\"" width=150 style=\""vertical-align:middle\"">---朋友"",""<img src=\""../../test_img/22.png\"" width=150 style=\""vertical-align:middle\"">---生人"",""<img src=\""../../test_img/15.png\"" width=150 style=\""vertical-align:middle\"">---自我""]","","",""
"","","","","","html-keyboard-response","225","557534","0.0-9.0-0.0-0.0-0.0-1.7","null","<span style='color:GreenYellow; font-size: 70px;'>正确! </span>","null","","","","","","","","","","","","","","","","","","","","","","","","","feedback_test","",""
"","","","","","psychophysics","226","559379","0.0-9.0-0.0-0.0-0.0-0.8","835","","arrowright","","","","","","","","","","","","","key","arrowright","16.665137614678898","640","356","arrowleft","false","../../test_img/15.png","朋友","matching_task","自我","[""<img src=\""../../test_img/26.png\"" width=150 style=\""vertical-align:middle\"">---朋友"",""<img src=\""../../test_img/22.png\"" width=150 style=\""vertical-align:middle\"">---生人"",""<img src=\""../../test_img/15.png\"" width=150 style=\""vertical-align:middle\"">---自我""]","","",""
"","","","","","html-keyboard-response","227","559886","0.0-9.0-0.0-0.0-0.0-1.8","null","<span style='color:red; font-size: 70px;'>错误! </span>","null","","","","","","","","","","","","","","","","","","","","","","","","","feedback_test","",""
"","","","","","psychophysics","228","561667","0.0-9.0-0.0-0.0-0.0-0.9","768","","arrowright","","","","","","","","","","","","","key","arrowright","16.662264150944054","640","356","arrowright","true","../../test_img/22.png","生人","matching_task","生人","[""<img src=\""../../test_img/26.png\"" width=150 style=\""vertical-align:middle\"">---朋友"",""<img src=\""../../test_img/22.png\"" width=150 style=\""vertical-align:middle\"">---生人"",""<img src=\""../../test_img/15.png\"" width=150 style=\""vertical-align:middle\"">---自我""]","","",""
"","","","","","html-keyboard-response","229","562175","0.0-9.0-0.0-0.0-0.0-1.9","null","<span style='color:GreenYellow; font-size: 70px;'>正确! </span>","null","","","","","","","","","","","","","","","","","","","","","","","","","feedback_test","",""
"","","","","","psychophysics","230","563901","0.0-9.0-0.0-0.0-0.0-0.10","719","","arrowright","","","","","","","","","","","","","key","arrowright","16.66407766990314","640","356","arrowright","true","../../test_img/15.png","自我","matching_task","自我","[""<img src=\""../../test_img/26.png\"" width=150 style=\""vertical-align:middle\"">---朋友"",""<img src=\""../../test_img/22.png\"" width=150 style=\""vertical-align:middle\"">---生人"",""<img src=\""../../test_img/15.png\"" width=150 style=\""vertical-align:middle\"">---自我""]","","",""
"","","","","","html-keyboard-response","231","564402","0.0-9.0-0.0-0.0-0.0-1.10","null","<span style='color:GreenYellow; font-size: 70px;'>正确! </span>","null","","","","","","","","","","","","","","","","","","","","","","","","","feedback_test","",""
"","","","","","psychophysics","232","566274","0.0-9.0-0.0-0.0-0.0-0.11","860","","arrowleft","","","","","","","","","","","","","key","arrowleft","16.664864864864235","640","356","arrowleft","true","../../test_img/26.png","生人","matching_task","朋友","[""<img src=\""../../test_img/26.png\"" width=150 style=\""vertical-align:middle\"">---朋友"",""<img src=\""../../test_img/22.png\"" width=150 style=\""vertical-align:middle\"">---生人"",""<img src=\""../../test_img/15.png\"" width=150 style=\""vertical-align:middle\"">---自我""]","","",""
"","","","","","html-keyboard-response","233","566778","0.0-9.0-0.0-0.0-0.0-1.11","null","<span style='color:GreenYellow; font-size: 70px;'>正确! </span>","null","","","","","","","","","","","","","","","","","","","","","","","","","feedback_test","",""
"","","","","","psychophysics","234","568646","0.0-9.0-0.0-0.0-0.0-0.12","866","","arrowleft","","","","","","","","","","","","","key","arrowleft","16.663963963964594","640","356","arrowleft","true","../../test_img/22.png","朋友","matching_task","生人","[""<img src=\""../../test_img/26.png\"" width=150 style=\""vertical-align:middle\"">---朋友"",""<img src=\""../../test_img/22.png\"" width=150 style=\""vertical-align:middle\"">---生人"",""<img src=\""../../test_img/15.png\"" width=150 style=\""vertical-align:middle\"">---自我""]","","",""
"","","","","","html-keyboard-response","235","569154","0.0-9.0-0.0-0.0-0.0-1.12","null","<span style='color:GreenYellow; font-size: 70px;'>正确! </span>","null","","","","","","","","","","","","","","","","","","","","","","","","","feedback_test","",""
"","","","","","psychophysics","236","570967","0.0-9.0-0.0-0.0-0.0-0.13","804","","arrowleft","","","","","","","","","","","","","key","arrowleft","16.664814814815244","640","356","arrowleft","true","../../test_img/15.png","朋友","matching_task","自我","[""<img src=\""../../test_img/26.png\"" width=150 style=\""vertical-align:middle\"">---朋友"",""<img src=\""../../test_img/22.png\"" width=150 style=\""vertical-align:middle\"">---生人"",""<img src=\""../../test_img/15.png\"" width=150 style=\""vertical-align:middle\"">---自我""]","","",""
"","","","","","html-keyboard-response","237","571476","0.0-9.0-0.0-0.0-0.0-1.13","null","<span style='color:GreenYellow; font-size: 70px;'>正确! </span>","null","","","","","","","","","","","","","","","","","","","","","","","","","feedback_test","",""
"","","","","","psychophysics","238","573386","0.0-9.0-0.0-0.0-0.0-0.14","907","","arrowleft","","","","","","","","","","","","","key","arrowleft","16.66315789473664","640","356","arrowright","false","../../test_img/22.png","生人","matching_task","生人","[""<img src=\""../../test_img/26.png\"" width=150 style=\""vertical-align:middle\"">---朋友"",""<img src=\""../../test_img/22.png\"" width=150 style=\""vertical-align:middle\"">---生人"",""<img src=\""../../test_img/15.png\"" width=150 style=\""vertical-align:middle\"">---自我""]","","",""
"","","","","","html-keyboard-response","239","573891","0.0-9.0-0.0-0.0-0.0-1.14","null","<span style='color:red; font-size: 70px;'>错误! </span>","null","","","","","","","","","","","","","","","","","","","","","","","","","feedback_test","",""
"","","","","","psychophysics","240","575893","0.0-9.0-0.0-0.0-0.0-0.15","996","","arrowright","","","","","","","","","","","","","key","arrowright","16.66386554621849","640","356","arrowright","true","../../test_img/26.png","朋友","matching_task","朋友","[""<img src=\""../../test_img/26.png\"" width=150 style=\""vertical-align:middle\"">---朋友"",""<img src=\""../../test_img/22.png\"" width=150 style=\""vertical-align:middle\"">---生人"",""<img src=\""../../test_img/15.png\"" width=150 style=\""vertical-align:middle\"">---自我""]","","",""
"","","","","","html-keyboard-response","241","576408","0.0-9.0-0.0-0.0-0.0-1.15","null","<span style='color:GreenYellow; font-size: 70px;'>正确! </span>","null","","","","","","","","","","","","","","","","","","","","","","","","","feedback_test","",""
"","","","","","psychophysics","242","578240","0.0-9.0-0.0-0.0-0.0-0.16","828","","arrowright","","","","","","","","","","","","","key","arrowright","16.665137614678898","640","356","arrowright","true","../../test_img/15.png","自我","matching_task","自我","[""<img src=\""../../test_img/26.png\"" width=150 style=\""vertical-align:middle\"">---朋友"",""<img src=\""../../test_img/22.png\"" width=150 style=\""vertical-align:middle\"">---生人"",""<img src=\""../../test_img/15.png\"" width=150 style=\""vertical-align:middle\"">---自我""]","","",""
"","","","","","html-keyboard-response","243","578745","0.0-9.0-0.0-0.0-0.0-1.16","null","<span style='color:GreenYellow; font-size: 70px;'>正确! </span>","null","","","","","","","","","","","","","","","","","","","","","","","","","feedback_test","",""
"","","","","","psychophysics","244","580745","0.0-9.0-0.0-0.0-0.0-0.17","983","","arrowright","","","","","","","","","","","","","key","arrowright","16.663559322034292","640","356","arrowright","true","../../test_img/26.png","朋友","matching_task","朋友","[""<img src=\""../../test_img/26.png\"" width=150 style=\""vertical-align:middle\"">---朋友"",""<img src=\""../../test_img/22.png\"" width=150 style=\""vertical-align:middle\"">---生人"",""<img src=\""../../test_img/15.png\"" width=150 style=\""vertical-align:middle\"">---自我""]","","",""
"","","","","","html-keyboard-response","245","581255","0.0-9.0-0.0-0.0-0.0-1.17","null","<span style='color:GreenYellow; font-size: 70px;'>正确! </span>","null","","","","","","","","","","","","","","","","","","","","","","","","","feedback_test","",""
"","","","","","psychophysics","246","583139","0.0-9.0-0.0-0.0-0.0-0.18","881","","arrowright","","","","","","","","","","","","","key","arrowright","16.66875000000021","640","356","arrowleft","false","../../test_img/26.png","生人","matching_task","朋友","[""<img src=\""../../test_img/26.png\"" width=150 style=\""vertical-align:middle\"">---朋友"",""<img src=\""../../test_img/22.png\"" width=150 style=\""vertical-align:middle\"">---生人"",""<img src=\""../../test_img/15.png\"" width=150 style=\""vertical-align:middle\"">---自我""]","","",""
"","","","","","html-keyboard-response","247","583649","0.0-9.0-0.0-0.0-0.0-1.18","null","<span style='color:red; font-size: 70px;'>错误! </span>","null","","","","","","","","","","","","","","","","","","","","","","","","","feedback_test","",""
"","","","","","psychophysics","248","585191","0.0-9.0-0.0-0.0-0.0-0.19","530","","arrowright","","","","","","","","","","","","","key","arrowright","16.66593406593381","640","356","arrowright","true","../../test_img/22.png","生人","matching_task","生人","[""<img src=\""../../test_img/26.png\"" width=150 style=\""vertical-align:middle\"">---朋友"",""<img src=\""../../test_img/22.png\"" width=150 style=\""vertical-align:middle\"">---生人"",""<img src=\""../../test_img/15.png\"" width=150 style=\""vertical-align:middle\"">---自我""]","","",""
"","","","","","html-keyboard-response","249","585700","0.0-9.0-0.0-0.0-0.0-1.19","null","<span style='color:GreenYellow; font-size: 70px;'>正确! </span>","null","","","","","","","","","","","","","","","","","","","","","","","","","feedback_test","",""
"","","","","","psychophysics","250","587599","0.0-9.0-0.0-0.0-0.0-0.20","888","","arrowleft","","","","","","","","","","","","","key","arrowleft","16.664601769911297","640","356","arrowleft","true","../../test_img/26.png","自我","matching_task","朋友","[""<img src=\""../../test_img/26.png\"" width=150 style=\""vertical-align:middle\"">---朋友"",""<img src=\""../../test_img/22.png\"" width=150 style=\""vertical-align:middle\"">---生人"",""<img src=\""../../test_img/15.png\"" width=150 style=\""vertical-align:middle\"">---自我""]","","",""
"","","","","","html-keyboard-response","251","588103","0.0-9.0-0.0-0.0-0.0-1.20","null","<span style='color:GreenYellow; font-size: 70px;'>正确! </span>","null","","","","","","","","","","","","","","","","","","","","","","","","","feedback_test","",""
"","","","","","psychophysics","252","589818","0.0-9.0-0.0-0.0-0.0-0.21","712","","arrowright","","","","","","","","","","","","","key","arrowright","16.6647058823534","640","356","arrowright","true","../../test_img/15.png","自我","matching_task","自我","[""<img src=\""../../test_img/26.png\"" width=150 style=\""vertical-align:middle\"">---朋友"",""<img src=\""../../test_img/22.png\"" width=150 style=\""vertical-align:middle\"">---生人"",""<img src=\""../../test_img/15.png\"" width=150 style=\""vertical-align:middle\"">---自我""]","","",""
"","","","","","html-keyboard-response","253","590322","0.0-9.0-0.0-0.0-0.0-1.21","null","<span style='color:GreenYellow; font-size: 70px;'>正确! </span>","null","","","","","","","","","","","","","","","","","","","","","","","","","feedback_test","",""
"","","","","","psychophysics","254","592246","0.0-9.0-0.0-0.0-0.0-0.22","920","","arrowleft","","","","","","","","","","","","","key","arrowleft","16.66434782608716","640","356","arrowleft","true","../../test_img/15.png","生人","matching_task","自我","[""<img src=\""../../test_img/26.png\"" width=150 style=\""vertical-align:middle\"">---朋友"",""<img src=\""../../test_img/22.png\"" width=150 style=\""vertical-align:middle\"">---生人"",""<img src=\""../../test_img/15.png\"" width=150 style=\""vertical-align:middle\"">---自我""]","","",""
"","","","","","html-keyboard-response","255","592752","0.0-9.0-0.0-0.0-0.0-1.22","null","<span style='color:GreenYellow; font-size: 70px;'>正确! </span>","null","","","","","","","","","","","","","","","","","","","","","","","","","feedback_test","",""
"","","","","","psychophysics","256","594609","0.0-9.0-0.0-0.0-0.0-0.23","850","","arrowleft","","","","","","","","","","","","","key","arrowleft","16.664545454545244","640","356","arrowleft","true","../../test_img/22.png","自我","matching_task","生人","[""<img src=\""../../test_img/26.png\"" width=150 style=\""vertical-align:middle\"">---朋友"",""<img src=\""../../test_img/22.png\"" width=150 style=\""vertical-align:middle\"">---生人"",""<img src=\""../../test_img/15.png\"" width=150 style=\""vertical-align:middle\"">---自我""]","","",""
"","","","","","html-keyboard-response","257","595121","0.0-9.0-0.0-0.0-0.0-1.23","null","<span style='color:GreenYellow; font-size: 70px;'>正确! </span>","null","","","","","","","","","","","","","","","","","","","","","","","","","feedback_test","",""
"","","","","","psychophysics","258","597092","0.0-9.0-0.0-0.0-0.0-0.24","969","","arrowleft","","","","","","","","","","","","","key","arrowleft","16.663247863247665","640","356","arrowleft","true","../../test_img/22.png","朋友","matching_task","生人","[""<img src=\""../../test_img/26.png\"" width=150 style=\""vertical-align:middle\"">---朋友"",""<img src=\""../../test_img/22.png\"" width=150 style=\""vertical-align:middle\"">---生人"",""<img src=\""../../test_img/15.png\"" width=150 style=\""vertical-align:middle\"">---自我""]","","",""
"","","","","","html-keyboard-response","259","597594","0.0-9.0-0.0-0.0-0.0-1.24","null","<span style='color:GreenYellow; font-size: 70px;'>正确! </span>","null","","","","","","","","","","","","","","","","","","","","","","","","","feedback_test","",""
