"success","timeout","failed_images","failed_audio","failed_video","trial_type","trial_index","time_elapsed","internal_node_id","rt","stimulus","response","value","item_width_mm","item_height_mm","item_width_px","px2mm","view_dist_mm","item_width_deg","px2deg","scale_factor","win_width_deg","win_height_deg","view_history","response_type","key_press","avg_frame_time","center_x","center_y","correct_response","correct","Image","word","condition","shape","association","screen_id","LeftLable","RightLable"
"true","false","[]","[]","[]","preload","0","1135","0.0-0.0","","","","","","","","","","","","","","","","","","","","","","","","","","","","","",""
"","","","","","html-keyboard-response","1","66613","0.0-1.0","65478","
     <p>您好，欢迎参加本次实验。</p>
     <p>为充分保障您的权利，请确保您已经知晓并同意《参与实验同意书》以及《数据公开知情同意书》。</p>
     <p>如果您未见过上述内容，请咨询实验员。</p>
     <p>如果您选择继续实验，则表示您已经清楚两份知情同意书的内容并同意。</p>
     <p> <div style = ""color: green""><按任意键至下页></div> </p>
     ","f11","","","","","","","","","","","","","","","","","","","","","","","","","","",""
"","","","","","html-keyboard-response","2","69778","0.0-2.0","3165","
     <p>本实验首先需要您填写一些基本个人信息。</p>
     <p> <div style = ""color: green""><按任意键至下页></div></p>
     ","arrowright","","","","","","","","","","","","","","","","","","","","","","","","","","",""
"","","","","","call-function","3","69779","0.0-3.0-0.0","","","","","","","","","","","","","","","","","","","","","","","","","","","","","",""
"","","","","","survey-html-form","4","99568","0.0-3.0-1.0","29785","","{""Q0"":""02""}","","","","","","","","","","","","","","","","","","","","","","","","","","",""
"","","","","","html-button-response","5","102047","0.0-3.0-2.0","2477","<p style = 'color : white'>您的性别</p>","0","","","","","","","","","","","","","","","","","","","","","","","","","","",""
"","","","","","survey-html-form","6","106087","0.0-3.0-3.0","4039","","{""Q0"":""2002""}","","","","","","","","","","","","","","","","","","","","","","","","","","",""
"","","","","","survey-html-form","7","113631","0.0-3.0-4.0","7544","","{""Q0"":""6""}","","","","","","","","","","","","","","","","","","","","","","","","","","",""
"","","","","","virtual-chinrest","8","311249","0.0-4.0","197616","","","","85.6","53.98","436.47149135197645","5.102559577471915","560.75","8.729429827039528","50","0.9622621598928357","33.04","16.72","","","","","","","","","","","","","","","",""
"true","","","","","fullscreen","9","319584","0.0-5.0","","","","","","","","","","","","","","","","","","","","","","","","","","","","","",""
"","","","","","instructions","10","371351","0.0-6.0","51766","","","","","","","","","","","","","","[{""page_index"":0,""viewing_time"":4462},{""page_index"":1,""viewing_time"":16808},{""page_index"":2,""viewing_time"":25288},{""page_index"":3,""viewing_time"":2400},{""page_index"":4,""viewing_time"":2808}]","","","","","","","","","","","","","","",""
"","","","","","psychophysics","11","373296","0.0-7.0-0.0-0.0","934","","arrowleft","","","","","","","","","","","","","key","arrowleft","6.156825396825471","853.3333333333334","476","arrowleft","true","../../test_img/19.png","自我","prac_matching_task","自我","[""<img src=\""../../test_img/25.png\"" width=150 style=\""vertical-align:middle\"">---生人"",""<img src=\""../../test_img/12.png\"" width=150 style=\""vertical-align:middle\"">---朋友"",""<img src=\""../../test_img/19.png\"" width=150 style=\""vertical-align:middle\"">---自我""]","","",""
"","","","","","html-keyboard-response","12","373602","0.0-7.0-0.0-1.0","null","<span style='color:GreenYellow; font-size: 70px;'>正确! </span>","null","","","","","","","","","","","","","","","","","","","","","","","","","feedback_test","",""
"","","","","","psychophysics","13","375588","0.0-7.0-0.0-0.1","984","","arrowright","","","","","","","","","","","","","key","arrowright","6.059815950920245","853.3333333333334","476","arrowright","true","../../test_img/25.png","自我","prac_matching_task","生人","[""<img src=\""../../test_img/25.png\"" width=150 style=\""vertical-align:middle\"">---生人"",""<img src=\""../../test_img/12.png\"" width=150 style=\""vertical-align:middle\"">---朋友"",""<img src=\""../../test_img/19.png\"" width=150 style=\""vertical-align:middle\"">---自我""]","","",""
"","","","","","html-keyboard-response","14","375897","0.0-7.0-0.0-1.1","null","<span style='color:GreenYellow; font-size: 70px;'>正确! </span>","null","","","","","","","","","","","","","","","","","","","","","","","","","feedback_test","",""
"","","","","","psychophysics","15","377973","0.0-7.0-0.0-0.2","1075","","arrowright","","","","","","","","","","","","","key","arrowright","6.07823529411775","853.3333333333334","476","arrowright","true","../../test_img/19.png","生人","prac_matching_task","自我","[""<img src=\""../../test_img/25.png\"" width=150 style=\""vertical-align:middle\"">---生人"",""<img src=\""../../test_img/12.png\"" width=150 style=\""vertical-align:middle\"">---朋友"",""<img src=\""../../test_img/19.png\"" width=150 style=\""vertical-align:middle\"">---自我""]","","",""
"","","","","","html-keyboard-response","16","378280","0.0-7.0-0.0-1.2","null","<span style='color:GreenYellow; font-size: 70px;'>正确! </span>","null","","","","","","","","","","","","","","","","","","","","","","","","","feedback_test","",""
"","","","","","psychophysics","17","380206","0.0-7.0-0.0-0.3","924","","arrowleft","","","","","","","","","","","","","key","arrowleft","6.217532467532467","853.3333333333334","476","arrowleft","true","../../test_img/12.png","朋友","prac_matching_task","朋友","[""<img src=\""../../test_img/25.png\"" width=150 style=\""vertical-align:middle\"">---生人"",""<img src=\""../../test_img/12.png\"" width=150 style=\""vertical-align:middle\"">---朋友"",""<img src=\""../../test_img/19.png\"" width=150 style=\""vertical-align:middle\"">---自我""]","","",""
"","","","","","html-keyboard-response","18","380508","0.0-7.0-0.0-1.3","null","<span style='color:GreenYellow; font-size: 70px;'>正确! </span>","null","","","","","","","","","","","","","","","","","","","","","","","","","feedback_test","",""
"","","","","","psychophysics","19","382312","0.0-7.0-0.0-0.4","800","","arrowright","","","","","","","","","","","","","key","arrowright","6.056271186440599","853.3333333333334","476","arrowright","true","../../test_img/12.png","生人","prac_matching_task","朋友","[""<img src=\""../../test_img/25.png\"" width=150 style=\""vertical-align:middle\"">---生人"",""<img src=\""../../test_img/12.png\"" width=150 style=\""vertical-align:middle\"">---朋友"",""<img src=\""../../test_img/19.png\"" width=150 style=\""vertical-align:middle\"">---自我""]","","",""
"","","","","","html-keyboard-response","20","382620","0.0-7.0-0.0-1.4","null","<span style='color:GreenYellow; font-size: 70px;'>正确! </span>","null","","","","","","","","","","","","","","","","","","","","","","","","","feedback_test","",""
"","","","","","psychophysics","21","384545","0.0-7.0-0.0-0.5","919","","arrowleft","","","","","","","","","","","","","key","arrowleft","6.1578778135049355","853.3333333333334","476","arrowleft","true","../../test_img/25.png","生人","prac_matching_task","生人","[""<img src=\""../../test_img/25.png\"" width=150 style=\""vertical-align:middle\"">---生人"",""<img src=\""../../test_img/12.png\"" width=150 style=\""vertical-align:middle\"">---朋友"",""<img src=\""../../test_img/19.png\"" width=150 style=\""vertical-align:middle\"">---自我""]","","",""
"","","","","","html-keyboard-response","22","384849","0.0-7.0-0.0-1.5","null","<span style='color:GreenYellow; font-size: 70px;'>正确! </span>","null","","","","","","","","","","","","","","","","","","","","","","","","","feedback_test","",""
"","","","","","psychophysics","23","386999","0.0-7.0-0.0-0.6","1149","","arrowleft","","","","","","","","","","","","","key","arrowleft","6.060339943342908","853.3333333333334","476","arrowleft","true","../../test_img/19.png","自我","prac_matching_task","自我","[""<img src=\""../../test_img/25.png\"" width=150 style=\""vertical-align:middle\"">---生人"",""<img src=\""../../test_img/12.png\"" width=150 style=\""vertical-align:middle\"">---朋友"",""<img src=\""../../test_img/19.png\"" width=150 style=\""vertical-align:middle\"">---自我""]","","",""
"","","","","","html-keyboard-response","24","387314","0.0-7.0-0.0-1.6","null","<span style='color:GreenYellow; font-size: 70px;'>正确! </span>","null","","","","","","","","","","","","","","","","","","","","","","","","","feedback_test","",""
"","","","","","psychophysics","25","389304","0.0-7.0-0.0-0.7","987","","arrowright","","","","","","","","","","","","","key","arrowright","6.135603715170243","853.3333333333334","476","arrowright","true","../../test_img/19.png","朋友","prac_matching_task","自我","[""<img src=\""../../test_img/25.png\"" width=150 style=\""vertical-align:middle\"">---生人"",""<img src=\""../../test_img/12.png\"" width=150 style=\""vertical-align:middle\"">---朋友"",""<img src=\""../../test_img/19.png\"" width=150 style=\""vertical-align:middle\"">---自我""]","","",""
"","","","","","html-keyboard-response","26","389610","0.0-7.0-0.0-1.7","null","<span style='color:GreenYellow; font-size: 70px;'>正确! </span>","null","","","","","","","","","","","","","","","","","","","","","","","","","feedback_test","",""
"","","","","","psychophysics","27","391525","0.0-7.0-0.0-0.8","911","","arrowleft","","","","","","","","","","","","","key","arrowleft","6.07993630573241","853.3333333333334","476","arrowleft","true","../../test_img/25.png","生人","prac_matching_task","生人","[""<img src=\""../../test_img/25.png\"" width=150 style=\""vertical-align:middle\"">---生人"",""<img src=\""../../test_img/12.png\"" width=150 style=\""vertical-align:middle\"">---朋友"",""<img src=\""../../test_img/19.png\"" width=150 style=\""vertical-align:middle\"">---自我""]","","",""
"","","","","","html-keyboard-response","28","391827","0.0-7.0-0.0-1.8","null","<span style='color:GreenYellow; font-size: 70px;'>正确! </span>","null","","","","","","","","","","","","","","","","","","","","","","","","","feedback_test","",""
"","","","","","psychophysics","29","393573","0.0-7.0-0.0-0.9","737","","arrowright","","","","","","","","","","","","","key","arrowright","6.0821678321678325","853.3333333333334","476","arrowright","true","../../test_img/25.png","朋友","prac_matching_task","生人","[""<img src=\""../../test_img/25.png\"" width=150 style=\""vertical-align:middle\"">---生人"",""<img src=\""../../test_img/12.png\"" width=150 style=\""vertical-align:middle\"">---朋友"",""<img src=\""../../test_img/19.png\"" width=150 style=\""vertical-align:middle\"">---自我""]","","",""
"","","","","","html-keyboard-response","30","393885","0.0-7.0-0.0-1.9","null","<span style='color:GreenYellow; font-size: 70px;'>正确! </span>","null","","","","","","","","","","","","","","","","","","","","","","","","","feedback_test","",""
"","","","","","psychophysics","31","395545","0.0-7.0-0.0-0.10","658","","arrowleft","","","","","","","","","","","","","key","arrowleft","6.06102941176462","853.3333333333334","476","arrowleft","true","../../test_img/12.png","朋友","prac_matching_task","朋友","[""<img src=\""../../test_img/25.png\"" width=150 style=\""vertical-align:middle\"">---生人"",""<img src=\""../../test_img/12.png\"" width=150 style=\""vertical-align:middle\"">---朋友"",""<img src=\""../../test_img/19.png\"" width=150 style=\""vertical-align:middle\"">---自我""]","","",""
"","","","","","html-keyboard-response","32","395848","0.0-7.0-0.0-1.10","null","<span style='color:GreenYellow; font-size: 70px;'>正确! </span>","null","","","","","","","","","","","","","","","","","","","","","","","","","feedback_test","",""
"","","","","","psychophysics","33","397710","0.0-7.0-0.0-0.11","860","","arrowright","","","","","","","","","","","","","key","arrowright","6.080655737705032","853.3333333333334","476","arrowright","true","../../test_img/12.png","自我","prac_matching_task","朋友","[""<img src=\""../../test_img/25.png\"" width=150 style=\""vertical-align:middle\"">---生人"",""<img src=\""../../test_img/12.png\"" width=150 style=\""vertical-align:middle\"">---朋友"",""<img src=\""../../test_img/19.png\"" width=150 style=\""vertical-align:middle\"">---自我""]","","",""
"","","","","","html-keyboard-response","34","398015","0.0-7.0-0.0-1.11","null","<span style='color:GreenYellow; font-size: 70px;'>正确! </span>","null","","","","","","","","","","","","","","","","","","","","","","","","","feedback_test","",""
"","","","","","psychophysics","35","399890","0.0-7.0-0.0-0.12","873","","arrowleft","","","","","","","","","","","","","key","arrowleft","6.120327868852497","853.3333333333334","476","arrowleft","true","../../test_img/25.png","生人","prac_matching_task","生人","[""<img src=\""../../test_img/25.png\"" width=150 style=\""vertical-align:middle\"">---生人"",""<img src=\""../../test_img/12.png\"" width=150 style=\""vertical-align:middle\"">---朋友"",""<img src=\""../../test_img/19.png\"" width=150 style=\""vertical-align:middle\"">---自我""]","","",""
"","","","","","html-keyboard-response","36","400197","0.0-7.0-0.0-1.12","null","<span style='color:GreenYellow; font-size: 70px;'>正确! </span>","null","","","","","","","","","","","","","","","","","","","","","","","","","feedback_test","",""
"","","","","","psychophysics","37","401981","0.0-7.0-0.0-0.13","779","","arrowleft","","","","","","","","","","","","","key","arrowleft","6.060409556314033","853.3333333333334","476","arrowleft","true","../../test_img/25.png","生人","prac_matching_task","生人","[""<img src=\""../../test_img/25.png\"" width=150 style=\""vertical-align:middle\"">---生人"",""<img src=\""../../test_img/12.png\"" width=150 style=\""vertical-align:middle\"">---朋友"",""<img src=\""../../test_img/19.png\"" width=150 style=\""vertical-align:middle\"">---自我""]","","",""
"","","","","","html-keyboard-response","38","402295","0.0-7.0-0.0-1.13","null","<span style='color:GreenYellow; font-size: 70px;'>正确! </span>","null","","","","","","","","","","","","","","","","","","","","","","","","","feedback_test","",""
"","","","","","psychophysics","39","404029","0.0-7.0-0.0-0.14","729","","arrowleft","","","","","","","","","","","","","key","arrowleft","6.237090909090951","853.3333333333334","476","arrowleft","true","../../test_img/19.png","自我","prac_matching_task","自我","[""<img src=\""../../test_img/25.png\"" width=150 style=\""vertical-align:middle\"">---生人"",""<img src=\""../../test_img/12.png\"" width=150 style=\""vertical-align:middle\"">---朋友"",""<img src=\""../../test_img/19.png\"" width=150 style=\""vertical-align:middle\"">---自我""]","","",""
"","","","","","html-keyboard-response","40","404345","0.0-7.0-0.0-1.14","null","<span style='color:GreenYellow; font-size: 70px;'>正确! </span>","null","","","","","","","","","","","","","","","","","","","","","","","","","feedback_test","",""
"","","","","","psychophysics","41","406061","0.0-7.0-0.0-0.15","714","","arrowright","","","","","","","","","","","","","key","arrowright","6.0606382978722575","853.3333333333334","476","arrowright","true","../../test_img/12.png","生人","prac_matching_task","朋友","[""<img src=\""../../test_img/25.png\"" width=150 style=\""vertical-align:middle\"">---生人"",""<img src=\""../../test_img/12.png\"" width=150 style=\""vertical-align:middle\"">---朋友"",""<img src=\""../../test_img/19.png\"" width=150 style=\""vertical-align:middle\"">---自我""]","","",""
"","","","","","html-keyboard-response","42","406368","0.0-7.0-0.0-1.15","null","<span style='color:GreenYellow; font-size: 70px;'>正确! </span>","null","","","","","","","","","","","","","","","","","","","","","","","","","feedback_test","",""
"","","","","","psychophysics","43","408259","0.0-7.0-0.0-0.16","888","","arrowright","","","","","","","","","","","","","key","arrowright","6.179672131147503","853.3333333333334","476","arrowright","true","../../test_img/25.png","朋友","prac_matching_task","生人","[""<img src=\""../../test_img/25.png\"" width=150 style=\""vertical-align:middle\"">---生人"",""<img src=\""../../test_img/12.png\"" width=150 style=\""vertical-align:middle\"">---朋友"",""<img src=\""../../test_img/19.png\"" width=150 style=\""vertical-align:middle\"">---自我""]","","",""
"","","","","","html-keyboard-response","44","408564","0.0-7.0-0.0-1.16","null","<span style='color:GreenYellow; font-size: 70px;'>正确! </span>","null","","","","","","","","","","","","","","","","","","","","","","","","","feedback_test","",""
"","","","","","psychophysics","45","410656","0.0-7.0-0.0-0.17","1091","","arrowleft","","","","","","","","","","","","","key","arrowleft","6.060349854227439","853.3333333333334","476","arrowright","false","../../test_img/19.png","生人","prac_matching_task","自我","[""<img src=\""../../test_img/25.png\"" width=150 style=\""vertical-align:middle\"">---生人"",""<img src=\""../../test_img/12.png\"" width=150 style=\""vertical-align:middle\"">---朋友"",""<img src=\""../../test_img/19.png\"" width=150 style=\""vertical-align:middle\"">---自我""]","","",""
"","","","","","html-keyboard-response","46","410971","0.0-7.0-0.0-1.17","null","<span style='color:red; font-size: 70px;'>错误! </span>","null","","","","","","","","","","","","","","","","","","","","","","","","","feedback_test","",""
"","","","","","psychophysics","47","412680","0.0-7.0-0.0-0.18","707","","arrowleft","","","","","","","","","","","","","key","arrowleft","6.060714285714286","853.3333333333334","476","arrowleft","true","../../test_img/12.png","朋友","prac_matching_task","朋友","[""<img src=\""../../test_img/25.png\"" width=150 style=\""vertical-align:middle\"">---生人"",""<img src=\""../../test_img/12.png\"" width=150 style=\""vertical-align:middle\"">---朋友"",""<img src=\""../../test_img/19.png\"" width=150 style=\""vertical-align:middle\"">---自我""]","","",""
"","","","","","html-keyboard-response","48","412986","0.0-7.0-0.0-1.18","null","<span style='color:GreenYellow; font-size: 70px;'>正确! </span>","null","","","","","","","","","","","","","","","","","","","","","","","","","feedback_test","",""
"","","","","","psychophysics","49","414745","0.0-7.0-0.0-0.19","755","","arrowright","","","","","","","","","","","","","key","arrowright","6.060899653979158","853.3333333333334","476","arrowright","true","../../test_img/19.png","朋友","prac_matching_task","自我","[""<img src=\""../../test_img/25.png\"" width=150 style=\""vertical-align:middle\"">---生人"",""<img src=\""../../test_img/12.png\"" width=150 style=\""vertical-align:middle\"">---朋友"",""<img src=\""../../test_img/19.png\"" width=150 style=\""vertical-align:middle\"">---自我""]","","",""
"","","","","","html-keyboard-response","50","415058","0.0-7.0-0.0-1.19","null","<span style='color:GreenYellow; font-size: 70px;'>正确! </span>","null","","","","","","","","","","","","","","","","","","","","","","","","","feedback_test","",""
"","","","","","psychophysics","51","416660","0.0-7.0-0.0-0.20","597","","arrowleft","","","","","","","","","","","","","key","arrowleft","6.084351145038301","853.3333333333334","476","arrowleft","true","../../test_img/19.png","自我","prac_matching_task","自我","[""<img src=\""../../test_img/25.png\"" width=150 style=\""vertical-align:middle\"">---生人"",""<img src=\""../../test_img/12.png\"" width=150 style=\""vertical-align:middle\"">---朋友"",""<img src=\""../../test_img/19.png\"" width=150 style=\""vertical-align:middle\"">---自我""]","","",""
"","","","","","html-keyboard-response","52","416976","0.0-7.0-0.0-1.20","null","<span style='color:GreenYellow; font-size: 70px;'>正确! </span>","null","","","","","","","","","","","","","","","","","","","","","","","","","feedback_test","",""
"","","","","","psychophysics","53","418751","0.0-7.0-0.0-0.21","774","","arrowright","","","","","","","","","","","","","key","arrowright","6.060824742267881","853.3333333333334","476","arrowright","true","../../test_img/25.png","自我","prac_matching_task","生人","[""<img src=\""../../test_img/25.png\"" width=150 style=\""vertical-align:middle\"">---生人"",""<img src=\""../../test_img/12.png\"" width=150 style=\""vertical-align:middle\"">---朋友"",""<img src=\""../../test_img/19.png\"" width=150 style=\""vertical-align:middle\"">---自我""]","","",""
"","","","","","html-keyboard-response","54","419060","0.0-7.0-0.0-1.21","null","<span style='color:GreenYellow; font-size: 70px;'>正确! </span>","null","","","","","","","","","","","","","","","","","","","","","","","","","feedback_test","",""
"","","","","","psychophysics","55","420842","0.0-7.0-0.0-0.22","778","","arrowleft","","","","","","","","","","","","","key","arrowleft","6.144636678200651","853.3333333333334","476","arrowleft","true","../../test_img/12.png","朋友","prac_matching_task","朋友","[""<img src=\""../../test_img/25.png\"" width=150 style=\""vertical-align:middle\"">---生人"",""<img src=\""../../test_img/12.png\"" width=150 style=\""vertical-align:middle\"">---朋友"",""<img src=\""../../test_img/19.png\"" width=150 style=\""vertical-align:middle\"">---自我""]","","",""
"","","","","","html-keyboard-response","56","421155","0.0-7.0-0.0-1.22","null","<span style='color:GreenYellow; font-size: 70px;'>正确! </span>","null","","","","","","","","","","","","","","","","","","","","","","","","","feedback_test","",""
"","","","","","psychophysics","57","423161","0.0-7.0-0.0-0.23","1002","","arrowleft","","","","","","","","","","","","","key","arrowleft","6.249374999999963","853.3333333333334","476","arrowright","false","../../test_img/12.png","自我","prac_matching_task","朋友","[""<img src=\""../../test_img/25.png\"" width=150 style=\""vertical-align:middle\"">---生人"",""<img src=\""../../test_img/12.png\"" width=150 style=\""vertical-align:middle\"">---朋友"",""<img src=\""../../test_img/19.png\"" width=150 style=\""vertical-align:middle\"">---自我""]","","",""
"","","","","","html-keyboard-response","58","423477","0.0-7.0-0.0-1.23","null","<span style='color:red; font-size: 70px;'>错误! </span>","null","","","","","","","","","","","","","","","","","","","","","","","","","feedback_test","",""
"","","","","","html-keyboard-response","59","428852","0.0-8.0","5374","<style>.context{color:white; font-size: 35px; line-height:40px}</style>                          <div><p class='context'>您正确回答了92% 的试次。</p ><p class='context'>您的平均反应时为842毫秒。</p ><p class='context'>恭喜您完成练习。按任意键进入知觉匹配任务正式实验。</p ><p style = 'color:lightgreen; font-size: 35px;' >正式实验与练习要求相同，请您尽可能又快又准地进行按键反应</p><p class='footer' style='font-size: 22px; line-height:40px;'>请将您右手的<span style='color: lightgreen;'>食指与无名指</span>放在电脑键盘的相应键位上进行按键。</p >","arrowright","","","","","","","","","","","","","","","","","","","","","","","","","","",""
"","","","","","psychophysics","60","430631","0.0-9.0-0.0-0.0-0.0-0.0","775","","arrowright","","","","","","","","","","","","","key","arrowright","6.123529411764746","853.3333333333334","476","arrowleft","false","../../test_img/25.png","生人","matching_task","生人","[""<img src=\""../../test_img/25.png\"" width=150 style=\""vertical-align:middle\"">---生人"",""<img src=\""../../test_img/12.png\"" width=150 style=\""vertical-align:middle\"">---朋友"",""<img src=\""../../test_img/19.png\"" width=150 style=\""vertical-align:middle\"">---自我""]","","",""
"","","","","","html-keyboard-response","61","431141","0.0-9.0-0.0-0.0-0.0-1.0","null","<span style='color:red; font-size: 70px;'>错误! </span>","null","","","","","","","","","","","","","","","","","","","","","","","","","feedback_test","",""
"","","","","","psychophysics","62","432994","0.0-9.0-0.0-0.0-0.0-0.1","852","","arrowleft","","","","","","","","","","","","","key","arrowleft","6.121262458471761","853.3333333333334","476","arrowleft","true","../../test_img/12.png","朋友","matching_task","朋友","[""<img src=\""../../test_img/25.png\"" width=150 style=\""vertical-align:middle\"">---生人"",""<img src=\""../../test_img/12.png\"" width=150 style=\""vertical-align:middle\"">---朋友"",""<img src=\""../../test_img/19.png\"" width=150 style=\""vertical-align:middle\"">---自我""]","","",""
"","","","","","html-keyboard-response","63","433510","0.0-9.0-0.0-0.0-0.0-1.1","null","<span style='color:GreenYellow; font-size: 70px;'>正确! </span>","null","","","","","","","","","","","","","","","","","","","","","","","","","feedback_test","",""
"","","","","","psychophysics","64","435406","0.0-9.0-0.0-0.0-0.0-0.2","894","","arrowleft","","","","","","","","","","","","","key","arrowleft","6.199671052631618","853.3333333333334","476","arrowright","false","../../test_img/25.png","朋友","matching_task","生人","[""<img src=\""../../test_img/25.png\"" width=150 style=\""vertical-align:middle\"">---生人"",""<img src=\""../../test_img/12.png\"" width=150 style=\""vertical-align:middle\"">---朋友"",""<img src=\""../../test_img/19.png\"" width=150 style=\""vertical-align:middle\"">---自我""]","","",""
"","","","","","html-keyboard-response","65","435911","0.0-9.0-0.0-0.0-0.0-1.2","null","<span style='color:red; font-size: 70px;'>错误! </span>","null","","","","","","","","","","","","","","","","","","","","","","","","","feedback_test","",""
"","","","","","psychophysics","66","437915","0.0-9.0-0.0-0.0-0.0-0.3","1002","","arrowright","","","","","","","","","","","","","key","arrowright","6.060182370820633","853.3333333333334","476","arrowright","true","../../test_img/19.png","朋友","matching_task","自我","[""<img src=\""../../test_img/25.png\"" width=150 style=\""vertical-align:middle\"">---生人"",""<img src=\""../../test_img/12.png\"" width=150 style=\""vertical-align:middle\"">---朋友"",""<img src=\""../../test_img/19.png\"" width=150 style=\""vertical-align:middle\"">---自我""]","","",""
"","","","","","html-keyboard-response","67","438430","0.0-9.0-0.0-0.0-0.0-1.3","null","<span style='color:GreenYellow; font-size: 70px;'>正确! </span>","null","","","","","","","","","","","","","","","","","","","","","","","","","feedback_test","",""
"","","","","","psychophysics","68","440156","0.0-9.0-0.0-0.0-0.0-0.4","725","","arrowleft","","","","","","","","","","","","","key","arrowleft","6.119285714285797","853.3333333333334","476","arrowright","false","../../test_img/25.png","自我","matching_task","生人","[""<img src=\""../../test_img/25.png\"" width=150 style=\""vertical-align:middle\"">---生人"",""<img src=\""../../test_img/12.png\"" width=150 style=\""vertical-align:middle\"">---朋友"",""<img src=\""../../test_img/19.png\"" width=150 style=\""vertical-align:middle\"">---自我""]","","",""
"","","","","","html-keyboard-response","69","440671","0.0-9.0-0.0-0.0-0.0-1.4","null","<span style='color:red; font-size: 70px;'>错误! </span>","null","","","","","","","","","","","","","","","","","","","","","","","","","feedback_test","",""
"","","","","","psychophysics","70","442666","0.0-9.0-0.0-0.0-0.0-0.5","991","","arrowright","","","","","","","","","","","","","key","arrowright","6.116923076923077","853.3333333333334","476","arrowright","true","../../test_img/12.png","生人","matching_task","朋友","[""<img src=\""../../test_img/25.png\"" width=150 style=\""vertical-align:middle\"">---生人"",""<img src=\""../../test_img/12.png\"" width=150 style=\""vertical-align:middle\"">---朋友"",""<img src=\""../../test_img/19.png\"" width=150 style=\""vertical-align:middle\"">---自我""]","","",""
"","","","","","html-keyboard-response","71","443172","0.0-9.0-0.0-0.0-0.0-1.5","null","<span style='color:GreenYellow; font-size: 70px;'>正确! </span>","null","","","","","","","","","","","","","","","","","","","","","","","","","feedback_test","",""
"","","","","","psychophysics","72","445286","0.0-9.0-0.0-0.0-0.0-0.6","1107","","arrowright","","","","","","","","","","","","","key","arrowright","6.20383480825969","853.3333333333334","476","arrowleft","false","../../test_img/25.png","生人","matching_task","生人","[""<img src=\""../../test_img/25.png\"" width=150 style=\""vertical-align:middle\"">---生人"",""<img src=\""../../test_img/12.png\"" width=150 style=\""vertical-align:middle\"">---朋友"",""<img src=\""../../test_img/19.png\"" width=150 style=\""vertical-align:middle\"">---自我""]","","",""
"","","","","","html-keyboard-response","73","445791","0.0-9.0-0.0-0.0-0.0-1.6","null","<span style='color:red; font-size: 70px;'>错误! </span>","null","","","","","","","","","","","","","","","","","","","","","","","","","feedback_test","",""
"","","","","","psychophysics","74","447824","0.0-9.0-0.0-0.0-0.0-0.7","1028","","arrowright","","","","","","","","","","","","","key","arrowright","6.096987951807264","853.3333333333334","476","arrowright","true","../../test_img/19.png","生人","matching_task","自我","[""<img src=\""../../test_img/25.png\"" width=150 style=\""vertical-align:middle\"">---生人"",""<img src=\""../../test_img/12.png\"" width=150 style=\""vertical-align:middle\"">---朋友"",""<img src=\""../../test_img/19.png\"" width=150 style=\""vertical-align:middle\"">---自我""]","","",""
"","","","","","html-keyboard-response","75","448327","0.0-9.0-0.0-0.0-0.0-1.7","null","<span style='color:GreenYellow; font-size: 70px;'>正确! </span>","null","","","","","","","","","","","","","","","","","","","","","","","","","feedback_test","",""
"","","","","","psychophysics","76","450219","0.0-9.0-0.0-0.0-0.0-0.8","889","","arrowright","","","","","","","","","","","","","key","arrowright","6.133986928104576","853.3333333333334","476","arrowright","true","../../test_img/12.png","自我","matching_task","朋友","[""<img src=\""../../test_img/25.png\"" width=150 style=\""vertical-align:middle\"">---生人"",""<img src=\""../../test_img/12.png\"" width=150 style=\""vertical-align:middle\"">---朋友"",""<img src=\""../../test_img/19.png\"" width=150 style=\""vertical-align:middle\"">---自我""]","","",""
"","","","","","html-keyboard-response","77","450720","0.0-9.0-0.0-0.0-0.0-1.8","null","<span style='color:GreenYellow; font-size: 70px;'>正确! </span>","null","","","","","","","","","","","","","","","","","","","","","","","","","feedback_test","",""
"","","","","","psychophysics","78","452510","0.0-9.0-0.0-0.0-0.0-0.9","785","","arrowleft","","","","","","","","","","","","","key","arrowleft","6.274295774647969","853.3333333333334","476","arrowleft","true","../../test_img/12.png","朋友","matching_task","朋友","[""<img src=\""../../test_img/25.png\"" width=150 style=\""vertical-align:middle\"">---生人"",""<img src=\""../../test_img/12.png\"" width=150 style=\""vertical-align:middle\"">---朋友"",""<img src=\""../../test_img/19.png\"" width=150 style=\""vertical-align:middle\"">---自我""]","","",""
"","","","","","html-keyboard-response","79","453020","0.0-9.0-0.0-0.0-0.0-1.9","null","<span style='color:GreenYellow; font-size: 70px;'>正确! </span>","null","","","","","","","","","","","","","","","","","","","","","","","","","feedback_test","",""
"","","","","","psychophysics","80","454643","0.0-9.0-0.0-0.0-0.0-0.10","622","","arrowleft","","","","","","","","","","","","","key","arrowleft","6.177011494252918","853.3333333333334","476","arrowleft","true","../../test_img/19.png","自我","matching_task","自我","[""<img src=\""../../test_img/25.png\"" width=150 style=\""vertical-align:middle\"">---生人"",""<img src=\""../../test_img/12.png\"" width=150 style=\""vertical-align:middle\"">---朋友"",""<img src=\""../../test_img/19.png\"" width=150 style=\""vertical-align:middle\"">---自我""]","","",""
"","","","","","html-keyboard-response","81","455148","0.0-9.0-0.0-0.0-0.0-1.10","null","<span style='color:GreenYellow; font-size: 70px;'>正确! </span>","null","","","","","","","","","","","","","","","","","","","","","","","","","feedback_test","",""
"","","","","","psychophysics","82","457080","0.0-9.0-0.0-0.0-0.0-0.11","929","","arrowright","","","","","","","","","","","","","key","arrowright","6.157692307692345","853.3333333333334","476","arrowleft","false","../../test_img/19.png","自我","matching_task","自我","[""<img src=\""../../test_img/25.png\"" width=150 style=\""vertical-align:middle\"">---生人"",""<img src=\""../../test_img/12.png\"" width=150 style=\""vertical-align:middle\"">---朋友"",""<img src=\""../../test_img/19.png\"" width=150 style=\""vertical-align:middle\"">---自我""]","","",""
"","","","","","html-keyboard-response","83","457581","0.0-9.0-0.0-0.0-0.0-1.11","null","<span style='color:red; font-size: 70px;'>错误! </span>","null","","","","","","","","","","","","","","","","","","","","","","","","","feedback_test","",""
"","","","","","psychophysics","84","459338","0.0-9.0-0.0-0.0-0.0-0.12","755","","arrowright","","","","","","","","","","","","","key","arrowright","6.102787456445993","853.3333333333334","476","arrowright","true","../../test_img/19.png","生人","matching_task","自我","[""<img src=\""../../test_img/25.png\"" width=150 style=\""vertical-align:middle\"">---生人"",""<img src=\""../../test_img/12.png\"" width=150 style=\""vertical-align:middle\"">---朋友"",""<img src=\""../../test_img/19.png\"" width=150 style=\""vertical-align:middle\"">---自我""]","","",""
"","","","","","html-keyboard-response","85","459844","0.0-9.0-0.0-0.0-0.0-1.12","null","<span style='color:GreenYellow; font-size: 70px;'>正确! </span>","null","","","","","","","","","","","","","","","","","","","","","","","","","feedback_test","",""
"","","","","","psychophysics","86","461828","0.0-9.0-0.0-0.0-0.0-0.13","982","","arrowright","","","","","","","","","","","","","key","arrowright","6.117027863777234","853.3333333333334","476","arrowright","true","../../test_img/12.png","生人","matching_task","朋友","[""<img src=\""../../test_img/25.png\"" width=150 style=\""vertical-align:middle\"">---生人"",""<img src=\""../../test_img/12.png\"" width=150 style=\""vertical-align:middle\"">---朋友"",""<img src=\""../../test_img/19.png\"" width=150 style=\""vertical-align:middle\"">---自我""]","","",""
"","","","","","html-keyboard-response","87","462338","0.0-9.0-0.0-0.0-0.0-1.13","null","<span style='color:GreenYellow; font-size: 70px;'>正确! </span>","null","","","","","","","","","","","","","","","","","","","","","","","","","feedback_test","",""
"","","","","","psychophysics","88","464228","0.0-9.0-0.0-0.0-0.0-0.14","884","","arrowleft","","","","","","","","","","","","","key","arrowleft","6.220792079207998","853.3333333333334","476","arrowleft","true","../../test_img/12.png","朋友","matching_task","朋友","[""<img src=\""../../test_img/25.png\"" width=150 style=\""vertical-align:middle\"">---生人"",""<img src=\""../../test_img/12.png\"" width=150 style=\""vertical-align:middle\"">---朋友"",""<img src=\""../../test_img/19.png\"" width=150 style=\""vertical-align:middle\"">---自我""]","","",""
"","","","","","html-keyboard-response","89","464732","0.0-9.0-0.0-0.0-0.0-1.14","null","<span style='color:GreenYellow; font-size: 70px;'>正确! </span>","null","","","","","","","","","","","","","","","","","","","","","","","","","feedback_test","",""
"","","","","","psychophysics","90","466702","0.0-9.0-0.0-0.0-0.0-0.15","967","","arrowright","","","","","","","","","","","","","key","arrowright","6.079876160990676","853.3333333333334","476","arrowright","true","../../test_img/19.png","朋友","matching_task","自我","[""<img src=\""../../test_img/25.png\"" width=150 style=\""vertical-align:middle\"">---生人"",""<img src=\""../../test_img/12.png\"" width=150 style=\""vertical-align:middle\"">---朋友"",""<img src=\""../../test_img/19.png\"" width=150 style=\""vertical-align:middle\"">---自我""]","","",""
"","","","","","html-keyboard-response","91","467210","0.0-9.0-0.0-0.0-0.0-1.15","null","<span style='color:GreenYellow; font-size: 70px;'>正确! </span>","null","","","","","","","","","","","","","","","","","","","","","","","","","feedback_test","",""
"","","","","","psychophysics","92","468820","0.0-9.0-0.0-0.0-0.0-0.16","606","","arrowleft","","","","","","","","","","","","","key","arrowleft","6.324110671936759","853.3333333333334","476","arrowright","false","../../test_img/25.png","自我","matching_task","生人","[""<img src=\""../../test_img/25.png\"" width=150 style=\""vertical-align:middle\"">---生人"",""<img src=\""../../test_img/12.png\"" width=150 style=\""vertical-align:middle\"">---朋友"",""<img src=\""../../test_img/19.png\"" width=150 style=\""vertical-align:middle\"">---自我""]","","",""
"","","","","","html-keyboard-response","93","469330","0.0-9.0-0.0-0.0-0.0-1.16","null","<span style='color:red; font-size: 70px;'>错误! </span>","null","","","","","","","","","","","","","","","","","","","","","","","","","feedback_test","",""
"","","","","","psychophysics","94","471391","0.0-9.0-0.0-0.0-0.0-0.17","1060","","arrowright","","","","","","","","","","","","","key","arrowright","6.189123867069416","853.3333333333334","476","arrowleft","false","../../test_img/25.png","生人","matching_task","生人","[""<img src=\""../../test_img/25.png\"" width=150 style=\""vertical-align:middle\"">---生人"",""<img src=\""../../test_img/12.png\"" width=150 style=\""vertical-align:middle\"">---朋友"",""<img src=\""../../test_img/19.png\"" width=150 style=\""vertical-align:middle\"">---自我""]","","",""
"","","","","","html-keyboard-response","95","471906","0.0-9.0-0.0-0.0-0.0-1.17","null","<span style='color:red; font-size: 70px;'>错误! </span>","null","","","","","","","","","","","","","","","","","","","","","","","","","feedback_test","",""
"","","","","","psychophysics","96","473896","0.0-9.0-0.0-0.0-0.0-0.18","985","","arrowright","","","","","","","","","","","","","key","arrowright","6.117283950617284","853.3333333333334","476","arrowright","true","../../test_img/12.png","自我","matching_task","朋友","[""<img src=\""../../test_img/25.png\"" width=150 style=\""vertical-align:middle\"">---生人"",""<img src=\""../../test_img/12.png\"" width=150 style=\""vertical-align:middle\"">---朋友"",""<img src=\""../../test_img/19.png\"" width=150 style=\""vertical-align:middle\"">---自我""]","","",""
"","","","","","html-keyboard-response","97","474406","0.0-9.0-0.0-0.0-0.0-1.18","null","<span style='color:GreenYellow; font-size: 70px;'>正确! </span>","null","","","","","","","","","","","","","","","","","","","","","","","","","feedback_test","",""
"","","","","","psychophysics","98","476084","0.0-9.0-0.0-0.0-0.0-0.19","676","","arrowleft","","","","","","","","","","","","","key","arrowleft","6.265413533834717","853.3333333333334","476","arrowleft","true","../../test_img/19.png","自我","matching_task","自我","[""<img src=\""../../test_img/25.png\"" width=150 style=\""vertical-align:middle\"">---生人"",""<img src=\""../../test_img/12.png\"" width=150 style=\""vertical-align:middle\"">---朋友"",""<img src=\""../../test_img/19.png\"" width=150 style=\""vertical-align:middle\"">---自我""]","","",""
"","","","","","html-keyboard-response","99","476590","0.0-9.0-0.0-0.0-0.0-1.19","null","<span style='color:GreenYellow; font-size: 70px;'>正确! </span>","null","","","","","","","","","","","","","","","","","","","","","","","","","feedback_test","",""
"","","","","","psychophysics","100","478215","0.0-9.0-0.0-0.0-0.0-0.20","623","","arrowright","","","","","","","","","","","","","key","arrowright","6.061278195488678","853.3333333333334","476","arrowright","true","../../test_img/25.png","朋友","matching_task","生人","[""<img src=\""../../test_img/25.png\"" width=150 style=\""vertical-align:middle\"">---生人"",""<img src=\""../../test_img/12.png\"" width=150 style=\""vertical-align:middle\"">---朋友"",""<img src=\""../../test_img/19.png\"" width=150 style=\""vertical-align:middle\"">---自我""]","","",""
"","","","","","html-keyboard-response","101","478724","0.0-9.0-0.0-0.0-0.0-1.20","null","<span style='color:GreenYellow; font-size: 70px;'>正确! </span>","null","","","","","","","","","","","","","","","","","","","","","","","","","feedback_test","",""
"","","","","","psychophysics","102","480491","0.0-9.0-0.0-0.0-0.0-0.21","760","","arrowright","","","","","","","","","","","","","key","arrowright","6.25480427046255","853.3333333333334","476","arrowleft","false","../../test_img/25.png","生人","matching_task","生人","[""<img src=\""../../test_img/25.png\"" width=150 style=\""vertical-align:middle\"">---生人"",""<img src=\""../../test_img/12.png\"" width=150 style=\""vertical-align:middle\"">---朋友"",""<img src=\""../../test_img/19.png\"" width=150 style=\""vertical-align:middle\"">---自我""]","","",""
"","","","","","html-keyboard-response","103","481001","0.0-9.0-0.0-0.0-0.0-1.21","null","<span style='color:red; font-size: 70px;'>错误! </span>","null","","","","","","","","","","","","","","","","","","","","","","","","","feedback_test","",""
"","","","","","psychophysics","104","482829","0.0-9.0-0.0-0.0-0.0-0.22","827","","arrowleft","","","","","","","","","","","","","key","arrowleft","6.142905405405562","853.3333333333334","476","arrowleft","true","../../test_img/12.png","朋友","matching_task","朋友","[""<img src=\""../../test_img/25.png\"" width=150 style=\""vertical-align:middle\"">---生人"",""<img src=\""../../test_img/12.png\"" width=150 style=\""vertical-align:middle\"">---朋友"",""<img src=\""../../test_img/19.png\"" width=150 style=\""vertical-align:middle\"">---自我""]","","",""
"","","","","","html-keyboard-response","105","483339","0.0-9.0-0.0-0.0-0.0-1.22","null","<span style='color:GreenYellow; font-size: 70px;'>正确! </span>","null","","","","","","","","","","","","","","","","","","","","","","","","","feedback_test","",""
"","","","","","psychophysics","106","485132","0.0-9.0-0.0-0.0-0.0-0.23","789","","arrowleft","","","","","","","","","","","","","key","arrowleft","6.252280701754468","853.3333333333334","476","arrowleft","true","../../test_img/19.png","自我","matching_task","自我","[""<img src=\""../../test_img/25.png\"" width=150 style=\""vertical-align:middle\"">---生人"",""<img src=\""../../test_img/12.png\"" width=150 style=\""vertical-align:middle\"">---朋友"",""<img src=\""../../test_img/19.png\"" width=150 style=\""vertical-align:middle\"">---自我""]","","",""
"","","","","","html-keyboard-response","107","485632","0.0-9.0-0.0-0.0-0.0-1.23","null","<span style='color:GreenYellow; font-size: 70px;'>正确! </span>","null","","","","","","","","","","","","","","","","","","","","","","","","","feedback_test","",""
"","","","","","psychophysics","108","487392","0.0-9.0-0.0-0.0-0.0-0.24","755","","arrowleft","","","","","","","","","","","","","key","arrowleft","6.277777777777778","853.3333333333334","476","arrowleft","true","../../test_img/25.png","生人","matching_task","生人","[""<img src=\""../../test_img/25.png\"" width=150 style=\""vertical-align:middle\"">---生人"",""<img src=\""../../test_img/12.png\"" width=150 style=\""vertical-align:middle\"">---朋友"",""<img src=\""../../test_img/19.png\"" width=150 style=\""vertical-align:middle\"">---自我""]","","",""
"","","","","","html-keyboard-response","109","487895","0.0-9.0-0.0-0.0-0.0-1.24","null","<span style='color:GreenYellow; font-size: 70px;'>正确! </span>","null","","","","","","","","","","","","","","","","","","","","","","","","","feedback_test","",""
"","","","","","psychophysics","110","489646","0.0-9.0-0.0-0.0-0.0-0.25","746","","arrowright","","","","","","","","","","","","","key","arrowright","6.081881533101045","853.3333333333334","476","arrowright","true","../../test_img/19.png","生人","matching_task","自我","[""<img src=\""../../test_img/25.png\"" width=150 style=\""vertical-align:middle\"">---生人"",""<img src=\""../../test_img/12.png\"" width=150 style=\""vertical-align:middle\"">---朋友"",""<img src=\""../../test_img/19.png\"" width=150 style=\""vertical-align:middle\"">---自我""]","","",""
"","","","","","html-keyboard-response","111","490155","0.0-9.0-0.0-0.0-0.0-1.25","null","<span style='color:GreenYellow; font-size: 70px;'>正确! </span>","null","","","","","","","","","","","","","","","","","","","","","","","","","feedback_test","",""
"","","","","","psychophysics","112","492386","0.0-9.0-0.0-0.0-0.0-0.26","1225","","arrowright","","","","","","","","","","","","","key","arrowright","6.319373219373319","853.3333333333334","476","arrowleft","false","../../test_img/25.png","生人","matching_task","生人","[""<img src=\""../../test_img/25.png\"" width=150 style=\""vertical-align:middle\"">---生人"",""<img src=\""../../test_img/12.png\"" width=150 style=\""vertical-align:middle\"">---朋友"",""<img src=\""../../test_img/19.png\"" width=150 style=\""vertical-align:middle\"">---自我""]","","",""
"","","","","","html-keyboard-response","113","492896","0.0-9.0-0.0-0.0-0.0-1.26","null","<span style='color:red; font-size: 70px;'>错误! </span>","null","","","","","","","","","","","","","","","","","","","","","","","","","feedback_test","",""
"","","","","","psychophysics","114","495065","0.0-9.0-0.0-0.0-0.0-0.27","1166","","arrowleft","","","","","","","","","","","","","key","arrowleft","6.181714285714219","853.3333333333334","476","arrowleft","true","../../test_img/19.png","自我","matching_task","自我","[""<img src=\""../../test_img/25.png\"" width=150 style=\""vertical-align:middle\"">---生人"",""<img src=\""../../test_img/12.png\"" width=150 style=\""vertical-align:middle\"">---朋友"",""<img src=\""../../test_img/19.png\"" width=150 style=\""vertical-align:middle\"">---自我""]","","",""
"","","","","","html-keyboard-response","115","495566","0.0-9.0-0.0-0.0-0.0-1.27","null","<span style='color:GreenYellow; font-size: 70px;'>正确! </span>","null","","","","","","","","","","","","","","","","","","","","","","","","","feedback_test","",""
"","","","","","psychophysics","116","497334","0.0-9.0-0.0-0.0-0.0-0.28","763","","arrowleft","","","","","","","","","","","","","key","arrowleft","6.188380281690141","853.3333333333334","476","arrowleft","true","../../test_img/12.png","朋友","matching_task","朋友","[""<img src=\""../../test_img/25.png\"" width=150 style=\""vertical-align:middle\"">---生人"",""<img src=\""../../test_img/12.png\"" width=150 style=\""vertical-align:middle\"">---朋友"",""<img src=\""../../test_img/19.png\"" width=150 style=\""vertical-align:middle\"">---自我""]","","",""
"","","","","","html-keyboard-response","117","497838","0.0-9.0-0.0-0.0-0.0-1.28","null","<span style='color:GreenYellow; font-size: 70px;'>正确! </span>","null","","","","","","","","","","","","","","","","","","","","","","","","","feedback_test","",""
"","","","","","psychophysics","118","499628","0.0-9.0-0.0-0.0-0.0-0.29","788","","arrowright","","","","","","","","","","","","","key","arrowright","6.252280701754468","853.3333333333334","476","arrowright","true","../../test_img/12.png","生人","matching_task","朋友","[""<img src=\""../../test_img/25.png\"" width=150 style=\""vertical-align:middle\"">---生人"",""<img src=\""../../test_img/12.png\"" width=150 style=\""vertical-align:middle\"">---朋友"",""<img src=\""../../test_img/19.png\"" width=150 style=\""vertical-align:middle\"">---自我""]","","",""
"","","","","","html-keyboard-response","119","500131","0.0-9.0-0.0-0.0-0.0-1.29","null","<span style='color:GreenYellow; font-size: 70px;'>正确! </span>","null","","","","","","","","","","","","","","","","","","","","","","","","","feedback_test","",""
"","","","","","psychophysics","120","501836","0.0-9.0-0.0-0.0-0.0-0.30","700","","arrowleft","","","","","","","","","","","","","key","arrowleft","6.105035971222854","853.3333333333334","476","arrowleft","true","../../test_img/12.png","朋友","matching_task","朋友","[""<img src=\""../../test_img/25.png\"" width=150 style=\""vertical-align:middle\"">---生人"",""<img src=\""../../test_img/12.png\"" width=150 style=\""vertical-align:middle\"">---朋友"",""<img src=\""../../test_img/19.png\"" width=150 style=\""vertical-align:middle\"">---自我""]","","",""
"","","","","","html-keyboard-response","121","502347","0.0-9.0-0.0-0.0-0.0-1.30","null","<span style='color:GreenYellow; font-size: 70px;'>正确! </span>","null","","","","","","","","","","","","","","","","","","","","","","","","","feedback_test","",""
"","","","","","psychophysics","122","504196","0.0-9.0-0.0-0.0-0.0-0.31","847","","arrowright","","","","","","","","","","","","","key","arrowright","6.224745762711825","853.3333333333334","476","arrowright","true","../../test_img/19.png","朋友","matching_task","自我","[""<img src=\""../../test_img/25.png\"" width=150 style=\""vertical-align:middle\"">---生人"",""<img src=\""../../test_img/12.png\"" width=150 style=\""vertical-align:middle\"">---朋友"",""<img src=\""../../test_img/19.png\"" width=150 style=\""vertical-align:middle\"">---自我""]","","",""
"","","","","","html-keyboard-response","123","504712","0.0-9.0-0.0-0.0-0.0-1.31","null","<span style='color:GreenYellow; font-size: 70px;'>正确! </span>","null","","","","","","","","","","","","","","","","","","","","","","","","","feedback_test","",""
"","","","","","psychophysics","124","506313","0.0-9.0-0.0-0.0-0.0-0.32","596","","arrowleft","","","","","","","","","","","","","key","arrowleft","6.06083650190114","853.3333333333334","476","arrowright","false","../../test_img/12.png","自我","matching_task","朋友","[""<img src=\""../../test_img/25.png\"" width=150 style=\""vertical-align:middle\"">---生人"",""<img src=\""../../test_img/12.png\"" width=150 style=\""vertical-align:middle\"">---朋友"",""<img src=\""../../test_img/19.png\"" width=150 style=\""vertical-align:middle\"">---自我""]","","",""
"","","","","","html-keyboard-response","125","506816","0.0-9.0-0.0-0.0-0.0-1.32","null","<span style='color:red; font-size: 70px;'>错误! </span>","null","","","","","","","","","","","","","","","","","","","","","","","","","feedback_test","",""
"","","","","","psychophysics","126","508440","0.0-9.0-0.0-0.0-0.0-0.33","622","","arrowleft","","","","","","","","","","","","","key","arrowleft","6.3210937500000455","853.3333333333334","476","arrowleft","true","../../test_img/19.png","自我","matching_task","自我","[""<img src=\""../../test_img/25.png\"" width=150 style=\""vertical-align:middle\"">---生人"",""<img src=\""../../test_img/12.png\"" width=150 style=\""vertical-align:middle\"">---朋友"",""<img src=\""../../test_img/19.png\"" width=150 style=\""vertical-align:middle\"">---自我""]","","",""
"","","","","","html-keyboard-response","127","508944","0.0-9.0-0.0-0.0-0.0-1.33","null","<span style='color:GreenYellow; font-size: 70px;'>正确! </span>","null","","","","","","","","","","","","","","","","","","","","","","","","","feedback_test","",""
"","","","","","psychophysics","128","510684","0.0-9.0-0.0-0.0-0.0-0.34","737","","arrowright","","","","","","","","","","","","","key","arrowright","6.061188811188811","853.3333333333334","476","arrowright","true","../../test_img/25.png","朋友","matching_task","生人","[""<img src=\""../../test_img/25.png\"" width=150 style=\""vertical-align:middle\"">---生人"",""<img src=\""../../test_img/12.png\"" width=150 style=\""vertical-align:middle\"">---朋友"",""<img src=\""../../test_img/19.png\"" width=150 style=\""vertical-align:middle\"">---自我""]","","",""
"","","","","","html-keyboard-response","129","511191","0.0-9.0-0.0-0.0-0.0-1.34","null","<span style='color:GreenYellow; font-size: 70px;'>正确! </span>","null","","","","","","","","","","","","","","","","","","","","","","","","","feedback_test","",""
"","","","","","psychophysics","130","512993","0.0-9.0-0.0-0.0-0.0-0.35","799","","arrowleft","","","","","","","","","","","","","key","arrowleft","6.295087719298368","853.3333333333334","476","arrowright","false","../../test_img/25.png","自我","matching_task","生人","[""<img src=\""../../test_img/25.png\"" width=150 style=\""vertical-align:middle\"">---生人"",""<img src=\""../../test_img/12.png\"" width=150 style=\""vertical-align:middle\"">---朋友"",""<img src=\""../../test_img/19.png\"" width=150 style=\""vertical-align:middle\"">---自我""]","","",""
"","","","","","html-keyboard-response","131","513502","0.0-9.0-0.0-0.0-0.0-1.35","null","<span style='color:red; font-size: 70px;'>错误! </span>","null","","","","","","","","","","","","","","","","","","","","","","","","","feedback_test","",""
"","","","","","psychophysics","132","515396","0.0-9.0-0.0-0.0-0.0-0.36","891","","arrowright","","","","","","","","","","","","","key","arrowright","6.241390728476706","853.3333333333334","476","arrowright","true","../../test_img/25.png","朋友","matching_task","生人","[""<img src=\""../../test_img/25.png\"" width=150 style=\""vertical-align:middle\"">---生人"",""<img src=\""../../test_img/12.png\"" width=150 style=\""vertical-align:middle\"">---朋友"",""<img src=\""../../test_img/19.png\"" width=150 style=\""vertical-align:middle\"">---自我""]","","",""
"","","","","","html-keyboard-response","133","515912","0.0-9.0-0.0-0.0-0.0-1.36","null","<span style='color:GreenYellow; font-size: 70px;'>正确! </span>","null","","","","","","","","","","","","","","","","","","","","","","","","","feedback_test","",""
"","","","","","psychophysics","134","517819","0.0-9.0-0.0-0.0-0.0-0.37","900","","arrowleft","","","","","","","","","","","","","key","arrowleft","6.13915857605178","853.3333333333334","476","arrowleft","true","../../test_img/12.png","朋友","matching_task","朋友","[""<img src=\""../../test_img/25.png\"" width=150 style=\""vertical-align:middle\"">---生人"",""<img src=\""../../test_img/12.png\"" width=150 style=\""vertical-align:middle\"">---朋友"",""<img src=\""../../test_img/19.png\"" width=150 style=\""vertical-align:middle\"">---自我""]","","",""
"","","","","","html-keyboard-response","135","518327","0.0-9.0-0.0-0.0-0.0-1.37","null","<span style='color:GreenYellow; font-size: 70px;'>正确! </span>","null","","","","","","","","","","","","","","","","","","","","","","","","","feedback_test","",""
"","","","","","psychophysics","136","520072","0.0-9.0-0.0-0.0-0.0-0.38","744","","arrowleft","","","","","","","","","","","","","key","arrowleft","6.074736842105427","853.3333333333334","476","arrowleft","true","../../test_img/25.png","生人","matching_task","生人","[""<img src=\""../../test_img/25.png\"" width=150 style=\""vertical-align:middle\"">---生人"",""<img src=\""../../test_img/12.png\"" width=150 style=\""vertical-align:middle\"">---朋友"",""<img src=\""../../test_img/19.png\"" width=150 style=\""vertical-align:middle\"">---自我""]","","",""
"","","","","","html-keyboard-response","137","520587","0.0-9.0-0.0-0.0-0.0-1.38","null","<span style='color:GreenYellow; font-size: 70px;'>正确! </span>","null","","","","","","","","","","","","","","","","","","","","","","","","","feedback_test","",""
"","","","","","psychophysics","138","522507","0.0-9.0-0.0-0.0-0.0-0.39","915","","arrowright","","","","","","","","","","","","","key","arrowright","6.0604430379746095","853.3333333333334","476","arrowright","true","../../test_img/25.png","自我","matching_task","生人","[""<img src=\""../../test_img/25.png\"" width=150 style=\""vertical-align:middle\"">---生人"",""<img src=\""../../test_img/12.png\"" width=150 style=\""vertical-align:middle\"">---朋友"",""<img src=\""../../test_img/19.png\"" width=150 style=\""vertical-align:middle\"">---自我""]","","",""
"","","","","","html-keyboard-response","139","523014","0.0-9.0-0.0-0.0-0.0-1.39","null","<span style='color:GreenYellow; font-size: 70px;'>正确! </span>","null","","","","","","","","","","","","","","","","","","","","","","","","","feedback_test","",""
"","","","","","psychophysics","140","524876","0.0-9.0-0.0-0.0-0.0-0.40","860","","arrowright","","","","","","","","","","","","","key","arrowright","6.203355704697908","853.3333333333334","476","arrowright","true","../../test_img/12.png","自我","matching_task","朋友","[""<img src=\""../../test_img/25.png\"" width=150 style=\""vertical-align:middle\"">---生人"",""<img src=\""../../test_img/12.png\"" width=150 style=\""vertical-align:middle\"">---朋友"",""<img src=\""../../test_img/19.png\"" width=150 style=\""vertical-align:middle\"">---自我""]","","",""
"","","","","","html-keyboard-response","141","525384","0.0-9.0-0.0-0.0-0.0-1.40","null","<span style='color:GreenYellow; font-size: 70px;'>正确! </span>","null","","","","","","","","","","","","","","","","","","","","","","","","","feedback_test","",""
"","","","","","psychophysics","142","527268","0.0-9.0-0.0-0.0-0.0-0.41","883","","arrowright","","","","","","","","","","","","","key","arrowright","6.0608414239483706","853.3333333333334","476","arrowright","true","../../test_img/12.png","生人","matching_task","朋友","[""<img src=\""../../test_img/25.png\"" width=150 style=\""vertical-align:middle\"">---生人"",""<img src=\""../../test_img/12.png\"" width=150 style=\""vertical-align:middle\"">---朋友"",""<img src=\""../../test_img/19.png\"" width=150 style=\""vertical-align:middle\"">---自我""]","","",""
"","","","","","html-keyboard-response","143","527784","0.0-9.0-0.0-0.0-0.0-1.41","null","<span style='color:GreenYellow; font-size: 70px;'>正确! </span>","null","","","","","","","","","","","","","","","","","","","","","","","","","feedback_test","",""
"","","","","","psychophysics","144","529556","0.0-9.0-0.0-0.0-0.0-0.42","771","","arrowleft","","","","","","","","","","","","","key","arrowleft","6.187719298245614","853.3333333333334","476","arrowleft","true","../../test_img/12.png","朋友","matching_task","朋友","[""<img src=\""../../test_img/25.png\"" width=150 style=\""vertical-align:middle\"">---生人"",""<img src=\""../../test_img/12.png\"" width=150 style=\""vertical-align:middle\"">---朋友"",""<img src=\""../../test_img/19.png\"" width=150 style=\""vertical-align:middle\"">---自我""]","","",""
"","","","","","html-keyboard-response","145","530059","0.0-9.0-0.0-0.0-0.0-1.42","null","<span style='color:GreenYellow; font-size: 70px;'>正确! </span>","null","","","","","","","","","","","","","","","","","","","","","","","","","feedback_test","",""
"","","","","","psychophysics","146","531830","0.0-9.0-0.0-0.0-0.0-0.43","768","","arrowleft","","","","","","","","","","","","","key","arrowleft","6.123958333333172","853.3333333333334","476","arrowleft","true","../../test_img/25.png","生人","matching_task","生人","[""<img src=\""../../test_img/25.png\"" width=150 style=\""vertical-align:middle\"">---生人"",""<img src=\""../../test_img/12.png\"" width=150 style=\""vertical-align:middle\"">---朋友"",""<img src=\""../../test_img/19.png\"" width=150 style=\""vertical-align:middle\"">---自我""]","","",""
"","","","","","html-keyboard-response","147","532340","0.0-9.0-0.0-0.0-0.0-1.43","null","<span style='color:GreenYellow; font-size: 70px;'>正确! </span>","null","","","","","","","","","","","","","","","","","","","","","","","","","feedback_test","",""
"","","","","","psychophysics","148","534521","0.0-9.0-0.0-0.0-0.0-0.44","1178","","arrowright","","","","","","","","","","","","","key","arrowright","6.194000000000067","853.3333333333334","476","arrowright","true","../../test_img/19.png","生人","matching_task","自我","[""<img src=\""../../test_img/25.png\"" width=150 style=\""vertical-align:middle\"">---生人"",""<img src=\""../../test_img/12.png\"" width=150 style=\""vertical-align:middle\"">---朋友"",""<img src=\""../../test_img/19.png\"" width=150 style=\""vertical-align:middle\"">---自我""]","","",""
"","","","","","html-keyboard-response","149","535026","0.0-9.0-0.0-0.0-0.0-1.44","null","<span style='color:GreenYellow; font-size: 70px;'>正确! </span>","null","","","","","","","","","","","","","","","","","","","","","","","","","feedback_test","",""
"","","","","","psychophysics","150","536891","0.0-9.0-0.0-0.0-0.0-0.45","863","","arrowleft","","","","","","","","","","","","","key","arrowleft","6.307823129251701","853.3333333333334","476","arrowright","false","../../test_img/19.png","朋友","matching_task","自我","[""<img src=\""../../test_img/25.png\"" width=150 style=\""vertical-align:middle\"">---生人"",""<img src=\""../../test_img/12.png\"" width=150 style=\""vertical-align:middle\"">---朋友"",""<img src=\""../../test_img/19.png\"" width=150 style=\""vertical-align:middle\"">---自我""]","","",""
"","","","","","html-keyboard-response","151","537392","0.0-9.0-0.0-0.0-0.0-1.45","null","<span style='color:red; font-size: 70px;'>错误! </span>","null","","","","","","","","","","","","","","","","","","","","","","","","","feedback_test","",""
"","","","","","psychophysics","152","539059","0.0-9.0-0.0-0.0-0.0-0.46","662","","arrowleft","","","","","","","","","","","","","key","arrowleft","6.150740740740999","853.3333333333334","476","arrowleft","true","../../test_img/19.png","自我","matching_task","自我","[""<img src=\""../../test_img/25.png\"" width=150 style=\""vertical-align:middle\"">---生人"",""<img src=\""../../test_img/12.png\"" width=150 style=\""vertical-align:middle\"">---朋友"",""<img src=\""../../test_img/19.png\"" width=150 style=\""vertical-align:middle\"">---自我""]","","",""
"","","","","","html-keyboard-response","153","539570","0.0-9.0-0.0-0.0-0.0-1.46","null","<span style='color:GreenYellow; font-size: 70px;'>正确! </span>","null","","","","","","","","","","","","","","","","","","","","","","","","","feedback_test","",""
"","","","","","psychophysics","154","541265","0.0-9.0-0.0-0.0-0.0-0.47","693","","arrowleft","","","","","","","","","","","","","key","arrowleft","6.235185185185185","853.3333333333334","476","arrowleft","true","../../test_img/19.png","自我","matching_task","自我","[""<img src=\""../../test_img/25.png\"" width=150 style=\""vertical-align:middle\"">---生人"",""<img src=\""../../test_img/12.png\"" width=150 style=\""vertical-align:middle\"">---朋友"",""<img src=\""../../test_img/19.png\"" width=150 style=\""vertical-align:middle\"">---自我""]","","",""
"","","","","","html-keyboard-response","155","541771","0.0-9.0-0.0-0.0-0.0-1.47","null","<span style='color:GreenYellow; font-size: 70px;'>正确! </span>","null","","","","","","","","","","","","","","","","","","","","","","","","","feedback_test","",""
"","","","","","psychophysics","156","543362","0.0-9.0-0.0-0.0-0.0-0.48","590","","arrowright","","","","","","","","","","","","","key","arrowright","6.0800000000001795","853.3333333333334","476","arrowleft","false","../../test_img/12.png","朋友","matching_task","朋友","[""<img src=\""../../test_img/25.png\"" width=150 style=\""vertical-align:middle\"">---生人"",""<img src=\""../../test_img/12.png\"" width=150 style=\""vertical-align:middle\"">---朋友"",""<img src=\""../../test_img/19.png\"" width=150 style=\""vertical-align:middle\"">---自我""]","","",""
"","","","","","html-keyboard-response","157","543871","0.0-9.0-0.0-0.0-0.0-1.48","null","<span style='color:red; font-size: 70px;'>错误! </span>","null","","","","","","","","","","","","","","","","","","","","","","","","","feedback_test","",""
"","","","","","psychophysics","158","545545","0.0-9.0-0.0-0.0-0.0-0.49","668","","arrowleft","","","","","","","","","","","","","key","arrowleft","6.127205882352856","853.3333333333334","476","arrowleft","true","../../test_img/25.png","生人","matching_task","生人","[""<img src=\""../../test_img/25.png\"" width=150 style=\""vertical-align:middle\"">---生人"",""<img src=\""../../test_img/12.png\"" width=150 style=\""vertical-align:middle\"">---朋友"",""<img src=\""../../test_img/19.png\"" width=150 style=\""vertical-align:middle\"">---自我""]","","",""
"","","","","","html-keyboard-response","159","546050","0.0-9.0-0.0-0.0-0.0-1.49","null","<span style='color:GreenYellow; font-size: 70px;'>正确! </span>","null","","","","","","","","","","","","","","","","","","","","","","","","","feedback_test","",""
"","","","","","psychophysics","160","547788","0.0-9.0-0.0-0.0-0.0-0.50","737","","arrowright","","","","","","","","","","","","","key","arrowright","6.103533568904346","853.3333333333334","476","arrowright","true","../../test_img/25.png","自我","matching_task","生人","[""<img src=\""../../test_img/25.png\"" width=150 style=\""vertical-align:middle\"">---生人"",""<img src=\""../../test_img/12.png\"" width=150 style=\""vertical-align:middle\"">---朋友"",""<img src=\""../../test_img/19.png\"" width=150 style=\""vertical-align:middle\"">---自我""]","","",""
"","","","","","html-keyboard-response","161","548298","0.0-9.0-0.0-0.0-0.0-1.50","null","<span style='color:GreenYellow; font-size: 70px;'>正确! </span>","null","","","","","","","","","","","","","","","","","","","","","","","","","feedback_test","",""
"","","","","","psychophysics","162","550285","0.0-9.0-0.0-0.0-0.0-0.51","985","","arrowright","","","","","","","","","","","","","key","arrowright","6.07907692307678","853.3333333333334","476","arrowright","true","../../test_img/19.png","朋友","matching_task","自我","[""<img src=\""../../test_img/25.png\"" width=150 style=\""vertical-align:middle\"">---生人"",""<img src=\""../../test_img/12.png\"" width=150 style=\""vertical-align:middle\"">---朋友"",""<img src=\""../../test_img/19.png\"" width=150 style=\""vertical-align:middle\"">---自我""]","","",""
"","","","","","html-keyboard-response","163","550791","0.0-9.0-0.0-0.0-0.0-1.51","null","<span style='color:GreenYellow; font-size: 70px;'>正确! </span>","null","","","","","","","","","","","","","","","","","","","","","","","","","feedback_test","",""
"","","","","","psychophysics","164","552484","0.0-9.0-0.0-0.0-0.0-0.52","688","","arrowleft","","","","","","","","","","","","","key","arrowleft","6.127636363636279","853.3333333333334","476","arrowleft","true","../../test_img/12.png","朋友","matching_task","朋友","[""<img src=\""../../test_img/25.png\"" width=150 style=\""vertical-align:middle\"">---生人"",""<img src=\""../../test_img/12.png\"" width=150 style=\""vertical-align:middle\"">---朋友"",""<img src=\""../../test_img/19.png\"" width=150 style=\""vertical-align:middle\"">---自我""]","","",""
"","","","","","html-keyboard-response","165","552986","0.0-9.0-0.0-0.0-0.0-1.52","null","<span style='color:GreenYellow; font-size: 70px;'>正确! </span>","null","","","","","","","","","","","","","","","","","","","","","","","","","feedback_test","",""
"","","","","","psychophysics","166","554756","0.0-9.0-0.0-0.0-0.0-0.53","766","","arrowright","","","","","","","","","","","","","key","arrowright","6.081724137931276","853.3333333333334","476","arrowright","true","../../test_img/12.png","自我","matching_task","朋友","[""<img src=\""../../test_img/25.png\"" width=150 style=\""vertical-align:middle\"">---生人"",""<img src=\""../../test_img/12.png\"" width=150 style=\""vertical-align:middle\"">---朋友"",""<img src=\""../../test_img/19.png\"" width=150 style=\""vertical-align:middle\"">---自我""]","","",""
"","","","","","html-keyboard-response","167","555260","0.0-9.0-0.0-0.0-0.0-1.53","null","<span style='color:GreenYellow; font-size: 70px;'>正确! </span>","null","","","","","","","","","","","","","","","","","","","","","","","","","feedback_test","",""
"","","","","","psychophysics","168","557084","0.0-9.0-0.0-0.0-0.0-0.54","821","","arrowleft","","","","","","","","","","","","","key","arrowleft","6.335888501742241","853.3333333333334","476","arrowleft","true","../../test_img/19.png","自我","matching_task","自我","[""<img src=\""../../test_img/25.png\"" width=150 style=\""vertical-align:middle\"">---生人"",""<img src=\""../../test_img/12.png\"" width=150 style=\""vertical-align:middle\"">---朋友"",""<img src=\""../../test_img/19.png\"" width=150 style=\""vertical-align:middle\"">---自我""]","","",""
"","","","","","html-keyboard-response","169","557587","0.0-9.0-0.0-0.0-0.0-1.54","null","<span style='color:GreenYellow; font-size: 70px;'>正确! </span>","null","","","","","","","","","","","","","","","","","","","","","","","","","feedback_test","",""
"","","","","","psychophysics","170","559448","0.0-9.0-0.0-0.0-0.0-0.55","857","","arrowleft","","","","","","","","","","","","","key","arrowleft","6.0607843137254145","853.3333333333334","476","arrowleft","true","../../test_img/25.png","生人","matching_task","生人","[""<img src=\""../../test_img/25.png\"" width=150 style=\""vertical-align:middle\"">---生人"",""<img src=\""../../test_img/12.png\"" width=150 style=\""vertical-align:middle\"">---朋友"",""<img src=\""../../test_img/19.png\"" width=150 style=\""vertical-align:middle\"">---自我""]","","",""
"","","","","","html-keyboard-response","171","559956","0.0-9.0-0.0-0.0-0.0-1.55","null","<span style='color:GreenYellow; font-size: 70px;'>正确! </span>","null","","","","","","","","","","","","","","","","","","","","","","","","","feedback_test","",""
"","","","","","psychophysics","172","561820","0.0-9.0-0.0-0.0-0.0-0.56","859","","arrowright","","","","","","","","","","","","","key","arrowright","6.202341137123746","853.3333333333334","476","arrowright","true","../../test_img/25.png","朋友","matching_task","生人","[""<img src=\""../../test_img/25.png\"" width=150 style=\""vertical-align:middle\"">---生人"",""<img src=\""../../test_img/12.png\"" width=150 style=\""vertical-align:middle\"">---朋友"",""<img src=\""../../test_img/19.png\"" width=150 style=\""vertical-align:middle\"">---自我""]","","",""
"","","","","","html-keyboard-response","173","562329","0.0-9.0-0.0-0.0-0.0-1.56","null","<span style='color:GreenYellow; font-size: 70px;'>正确! </span>","null","","","","","","","","","","","","","","","","","","","","","","","","","feedback_test","",""
"","","","","","psychophysics","174","564093","0.0-9.0-0.0-0.0-0.0-0.57","762","","arrowright","","","","","","","","","","","","","key","arrowright","6.1456140350877195","853.3333333333334","476","arrowright","true","../../test_img/19.png","生人","matching_task","自我","[""<img src=\""../../test_img/25.png\"" width=150 style=\""vertical-align:middle\"">---生人"",""<img src=\""../../test_img/12.png\"" width=150 style=\""vertical-align:middle\"">---朋友"",""<img src=\""../../test_img/19.png\"" width=150 style=\""vertical-align:middle\"">---自我""]","","",""
"","","","","","html-keyboard-response","175","564606","0.0-9.0-0.0-0.0-0.0-1.57","null","<span style='color:GreenYellow; font-size: 70px;'>正确! </span>","null","","","","","","","","","","","","","","","","","","","","","","","","","feedback_test","",""
"","","","","","psychophysics","176","566629","0.0-9.0-0.0-0.0-0.0-0.58","1021","","arrowright","","","","","","","","","","","","","key","arrowright","6.0606606606605204","853.3333333333334","476","arrowright","true","../../test_img/12.png","生人","matching_task","朋友","[""<img src=\""../../test_img/25.png\"" width=150 style=\""vertical-align:middle\"">---生人"",""<img src=\""../../test_img/12.png\"" width=150 style=\""vertical-align:middle\"">---朋友"",""<img src=\""../../test_img/19.png\"" width=150 style=\""vertical-align:middle\"">---自我""]","","",""
"","","","","","html-keyboard-response","177","567140","0.0-9.0-0.0-0.0-0.0-1.58","null","<span style='color:GreenYellow; font-size: 70px;'>正确! </span>","null","","","","","","","","","","","","","","","","","","","","","","","","","feedback_test","",""
"","","","","","psychophysics","178","569290","0.0-9.0-0.0-0.0-0.0-0.59","1149","","arrowleft","","","","","","","","","","","","","key","arrowleft","6.214534883720727","853.3333333333334","476","arrowleft","true","../../test_img/19.png","自我","matching_task","自我","[""<img src=\""../../test_img/25.png\"" width=150 style=\""vertical-align:middle\"">---生人"",""<img src=\""../../test_img/12.png\"" width=150 style=\""vertical-align:middle\"">---朋友"",""<img src=\""../../test_img/19.png\"" width=150 style=\""vertical-align:middle\"">---自我""]","","",""
"","","","","","html-keyboard-response","179","569795","0.0-9.0-0.0-0.0-0.0-1.59","null","<span style='color:GreenYellow; font-size: 70px;'>正确! </span>","null","","","","","","","","","","","","","","","","","","","","","","","","","feedback_test","",""
"","","","","","psychophysics","180","571587","0.0-9.0-0.0-0.0-0.0-0.60","790","","arrowleft","","","","","","","","","","","","","key","arrowleft","6.208013937282067","853.3333333333334","476","arrowleft","true","../../test_img/12.png","朋友","matching_task","朋友","[""<img src=\""../../test_img/25.png\"" width=150 style=\""vertical-align:middle\"">---生人"",""<img src=\""../../test_img/12.png\"" width=150 style=\""vertical-align:middle\"">---朋友"",""<img src=\""../../test_img/19.png\"" width=150 style=\""vertical-align:middle\"">---自我""]","","",""
"","","","","","html-keyboard-response","181","572091","0.0-9.0-0.0-0.0-0.0-1.60","null","<span style='color:GreenYellow; font-size: 70px;'>正确! </span>","null","","","","","","","","","","","","","","","","","","","","","","","","","feedback_test","",""
"","","","","","psychophysics","182","573928","0.0-9.0-0.0-0.0-0.0-0.61","834","","arrowright","","","","","","","","","","","","","key","arrowright","6.142281879194709","853.3333333333334","476","arrowright","true","../../test_img/19.png","朋友","matching_task","自我","[""<img src=\""../../test_img/25.png\"" width=150 style=\""vertical-align:middle\"">---生人"",""<img src=\""../../test_img/12.png\"" width=150 style=\""vertical-align:middle\"">---朋友"",""<img src=\""../../test_img/19.png\"" width=150 style=\""vertical-align:middle\"">---自我""]","","",""
"","","","","","html-keyboard-response","183","574430","0.0-9.0-0.0-0.0-0.0-1.61","null","<span style='color:GreenYellow; font-size: 70px;'>正确! </span>","null","","","","","","","","","","","","","","","","","","","","","","","","","feedback_test","",""
"","","","","","psychophysics","184","576147","0.0-9.0-0.0-0.0-0.0-0.62","714","","arrowright","","","","","","","","","","","","","key","arrowright","6.121942446042831","853.3333333333334","476","arrowright","true","../../test_img/25.png","朋友","matching_task","生人","[""<img src=\""../../test_img/25.png\"" width=150 style=\""vertical-align:middle\"">---生人"",""<img src=\""../../test_img/12.png\"" width=150 style=\""vertical-align:middle\"">---朋友"",""<img src=\""../../test_img/19.png\"" width=150 style=\""vertical-align:middle\"">---自我""]","","",""
"","","","","","html-keyboard-response","185","576661","0.0-9.0-0.0-0.0-0.0-1.62","null","<span style='color:GreenYellow; font-size: 70px;'>正确! </span>","null","","","","","","","","","","","","","","","","","","","","","","","","","feedback_test","",""
"","","","","","psychophysics","186","578460","0.0-9.0-0.0-0.0-0.0-0.63","795","","arrowright","","","","","","","","","","","","","key","arrowright","6.055932203389831","853.3333333333334","476","arrowright","true","../../test_img/12.png","生人","matching_task","朋友","[""<img src=\""../../test_img/25.png\"" width=150 style=\""vertical-align:middle\"">---生人"",""<img src=\""../../test_img/12.png\"" width=150 style=\""vertical-align:middle\"">---朋友"",""<img src=\""../../test_img/19.png\"" width=150 style=\""vertical-align:middle\"">---自我""]","","",""
"","","","","","html-keyboard-response","187","578964","0.0-9.0-0.0-0.0-0.0-1.63","null","<span style='color:GreenYellow; font-size: 70px;'>正确! </span>","null","","","","","","","","","","","","","","","","","","","","","","","","","feedback_test","",""
"","","","","","psychophysics","188","580692","0.0-9.0-0.0-0.0-0.0-0.64","726","","arrowleft","","","","","","","","","","","","","key","arrowleft","6.293479853479837","853.3333333333334","476","arrowleft","true","../../test_img/25.png","生人","matching_task","生人","[""<img src=\""../../test_img/25.png\"" width=150 style=\""vertical-align:middle\"">---生人"",""<img src=\""../../test_img/12.png\"" width=150 style=\""vertical-align:middle\"">---朋友"",""<img src=\""../../test_img/19.png\"" width=150 style=\""vertical-align:middle\"">---自我""]","","",""
"","","","","","html-keyboard-response","189","581204","0.0-9.0-0.0-0.0-0.0-1.64","null","<span style='color:GreenYellow; font-size: 70px;'>正确! </span>","null","","","","","","","","","","","","","","","","","","","","","","","","","feedback_test","",""
"","","","","","psychophysics","190","583099","0.0-9.0-0.0-0.0-0.0-0.65","891","","arrowleft","","","","","","","","","","","","","key","arrowleft","6.061093247588424","853.3333333333334","476","arrowleft","true","../../test_img/25.png","生人","matching_task","生人","[""<img src=\""../../test_img/25.png\"" width=150 style=\""vertical-align:middle\"">---生人"",""<img src=\""../../test_img/12.png\"" width=150 style=\""vertical-align:middle\"">---朋友"",""<img src=\""../../test_img/19.png\"" width=150 style=\""vertical-align:middle\"">---自我""]","","",""
"","","","","","html-keyboard-response","191","583601","0.0-9.0-0.0-0.0-0.0-1.65","null","<span style='color:GreenYellow; font-size: 70px;'>正确! </span>","null","","","","","","","","","","","","","","","","","","","","","","","","","feedback_test","",""
"","","","","","psychophysics","192","585370","0.0-9.0-0.0-0.0-0.0-0.66","767","","arrowleft","","","","","","","","","","","","","key","arrowleft","6.210247349823321","853.3333333333334","476","arrowleft","true","../../test_img/19.png","自我","matching_task","自我","[""<img src=\""../../test_img/25.png\"" width=150 style=\""vertical-align:middle\"">---生人"",""<img src=\""../../test_img/12.png\"" width=150 style=\""vertical-align:middle\"">---朋友"",""<img src=\""../../test_img/19.png\"" width=150 style=\""vertical-align:middle\"">---自我""]","","",""
"","","","","","html-keyboard-response","193","585881","0.0-9.0-0.0-0.0-0.0-1.66","null","<span style='color:GreenYellow; font-size: 70px;'>正确! </span>","null","","","","","","","","","","","","","","","","","","","","","","","","","feedback_test","",""
"","","","","","psychophysics","194","587723","0.0-9.0-0.0-0.0-0.0-0.67","840","","arrowright","","","","","","","","","","","","","key","arrowright","6.2464163822524","853.3333333333334","476","arrowright","true","../../test_img/25.png","自我","matching_task","生人","[""<img src=\""../../test_img/25.png\"" width=150 style=\""vertical-align:middle\"">---生人"",""<img src=\""../../test_img/12.png\"" width=150 style=\""vertical-align:middle\"">---朋友"",""<img src=\""../../test_img/19.png\"" width=150 style=\""vertical-align:middle\"">---自我""]","","",""
"","","","","","html-keyboard-response","195","588233","0.0-9.0-0.0-0.0-0.0-1.67","null","<span style='color:GreenYellow; font-size: 70px;'>正确! </span>","null","","","","","","","","","","","","","","","","","","","","","","","","","feedback_test","",""
"","","","","","psychophysics","196","590028","0.0-9.0-0.0-0.0-0.0-0.68","789","","arrowleft","","","","","","","","","","","","","key","arrowleft","6.164827586207057","853.3333333333334","476","arrowleft","true","../../test_img/12.png","朋友","matching_task","朋友","[""<img src=\""../../test_img/25.png\"" width=150 style=\""vertical-align:middle\"">---生人"",""<img src=\""../../test_img/12.png\"" width=150 style=\""vertical-align:middle\"">---朋友"",""<img src=\""../../test_img/19.png\"" width=150 style=\""vertical-align:middle\"">---自我""]","","",""
"","","","","","html-keyboard-response","197","590541","0.0-9.0-0.0-0.0-0.0-1.68","null","<span style='color:GreenYellow; font-size: 70px;'>正确! </span>","null","","","","","","","","","","","","","","","","","","","","","","","","","feedback_test","",""
"","","","","","psychophysics","198","592241","0.0-9.0-0.0-0.0-0.0-0.69","699","","arrowleft","","","","","","","","","","","","","key","arrowleft","6.082078853046679","853.3333333333334","476","arrowleft","true","../../test_img/19.png","自我","matching_task","自我","[""<img src=\""../../test_img/25.png\"" width=150 style=\""vertical-align:middle\"">---生人"",""<img src=\""../../test_img/12.png\"" width=150 style=\""vertical-align:middle\"">---朋友"",""<img src=\""../../test_img/19.png\"" width=150 style=\""vertical-align:middle\"">---自我""]","","",""
"","","","","","html-keyboard-response","199","592750","0.0-9.0-0.0-0.0-0.0-1.69","null","<span style='color:GreenYellow; font-size: 70px;'>正确! </span>","null","","","","","","","","","","","","","","","","","","","","","","","","","feedback_test","",""
"","","","","","psychophysics","200","594499","0.0-9.0-0.0-0.0-0.0-0.70","744","","arrowright","","","","","","","","","","","","","key","arrowright","6.060278745644356","853.3333333333334","476","arrowright","true","../../test_img/12.png","自我","matching_task","朋友","[""<img src=\""../../test_img/25.png\"" width=150 style=\""vertical-align:middle\"">---生人"",""<img src=\""../../test_img/12.png\"" width=150 style=\""vertical-align:middle\"">---朋友"",""<img src=\""../../test_img/19.png\"" width=150 style=\""vertical-align:middle\"">---自我""]","","",""
"","","","","","html-keyboard-response","201","595010","0.0-9.0-0.0-0.0-0.0-1.70","null","<span style='color:GreenYellow; font-size: 70px;'>正确! </span>","null","","","","","","","","","","","","","","","","","","","","","","","","","feedback_test","",""
"","","","","","psychophysics","202","596933","0.0-9.0-0.0-0.0-0.0-0.71","919","","arrowright","","","","","","","","","","","","","key","arrowright","6.238110749185592","853.3333333333334","476","arrowright","true","../../test_img/19.png","生人","matching_task","自我","[""<img src=\""../../test_img/25.png\"" width=150 style=\""vertical-align:middle\"">---生人"",""<img src=\""../../test_img/12.png\"" width=150 style=\""vertical-align:middle\"">---朋友"",""<img src=\""../../test_img/19.png\"" width=150 style=\""vertical-align:middle\"">---自我""]","","",""
"","","","","","html-keyboard-response","203","597444","0.0-9.0-0.0-0.0-0.0-1.71","null","<span style='color:GreenYellow; font-size: 70px;'>正确! </span>","null","","","","","","","","","","","","","","","","","","","","","","","","","feedback_test","",""
"","","","","","html-keyboard-response","204","598995","0.0-9.0-0.0-0.0-1.0","1550","<style>.context{color:white; font-size: 35px; line-height:40px}</style>                          <div><p class='context'>您正确回答了82% 的试次。</p><p class='context'>您的平均反应时为828毫秒。</p><p class='context'>请按任意键进入休息</p></div>","arrowright","","","","","","","","","","","","","","","","","","","","","","","","","","",""
"","","","","","html-button-response","205","611849","0.0-9.0-0.0-0.0-2.0","12853","
                    <p>知觉匹配任务中，您还剩余4组实验</p>
                    <p>现在是休息时间，当您结束休息后，您可以点击 结束休息 按钮 继续</p>
                    <p>建议休息时间还剩余<span id=""iii"">60</span>秒</p>","0","","","","","","","","","","","","","","","","","","","","","","","","","","",""
"","","","","","psychophysics","206","613839","0.0-9.0-0.0-0.0-0.1-0.72","989","","arrowright","","","","","","","","","","","","","key","arrowright","6.232389937106626","853.3333333333334","476","arrowright","true","../../test_img/12.png","自我","matching_task","朋友","[""<img src=\""../../test_img/25.png\"" width=150 style=\""vertical-align:middle\"">---生人"",""<img src=\""../../test_img/12.png\"" width=150 style=\""vertical-align:middle\"">---朋友"",""<img src=\""../../test_img/19.png\"" width=150 style=\""vertical-align:middle\"">---自我""]","","",""
"","","","","","html-keyboard-response","207","614343","0.0-9.0-0.0-0.0-0.1-1.72","null","<span style='color:GreenYellow; font-size: 70px;'>正确! </span>","null","","","","","","","","","","","","","","","","","","","","","","","","","feedback_test","",""
"","","","","","psychophysics","208","616156","0.0-9.0-0.0-0.0-0.1-0.73","812","","arrowright","","","","","","","","","","","","","key","arrowright","6.206529209621913","853.3333333333334","476","arrowright","true","../../test_img/19.png","朋友","matching_task","自我","[""<img src=\""../../test_img/25.png\"" width=150 style=\""vertical-align:middle\"">---生人"",""<img src=\""../../test_img/12.png\"" width=150 style=\""vertical-align:middle\"">---朋友"",""<img src=\""../../test_img/19.png\"" width=150 style=\""vertical-align:middle\"">---自我""]","","",""
"","","","","","html-keyboard-response","209","616660","0.0-9.0-0.0-0.0-0.1-1.73","null","<span style='color:GreenYellow; font-size: 70px;'>正确! </span>","null","","","","","","","","","","","","","","","","","","","","","","","","","feedback_test","",""
"","","","","","psychophysics","210","618322","0.0-9.0-0.0-0.0-0.1-0.74","660","","arrowright","","","","","","","","","","","","","key","arrowright","6.128148148148062","853.3333333333334","476","arrowright","true","../../test_img/12.png","生人","matching_task","朋友","[""<img src=\""../../test_img/25.png\"" width=150 style=\""vertical-align:middle\"">---生人"",""<img src=\""../../test_img/12.png\"" width=150 style=\""vertical-align:middle\"">---朋友"",""<img src=\""../../test_img/19.png\"" width=150 style=\""vertical-align:middle\"">---自我""]","","",""
"","","","","","html-keyboard-response","211","618834","0.0-9.0-0.0-0.0-0.1-1.74","null","<span style='color:GreenYellow; font-size: 70px;'>正确! </span>","null","","","","","","","","","","","","","","","","","","","","","","","","","feedback_test","",""
"","","","","","psychophysics","212","620492","0.0-9.0-0.0-0.0-0.1-0.75","653","","arrowleft","","","","","","","","","","","","","key","arrowleft","6.244696969696881","853.3333333333334","476","arrowleft","true","../../test_img/19.png","自我","matching_task","自我","[""<img src=\""../../test_img/25.png\"" width=150 style=\""vertical-align:middle\"">---生人"",""<img src=\""../../test_img/12.png\"" width=150 style=\""vertical-align:middle\"">---朋友"",""<img src=\""../../test_img/19.png\"" width=150 style=\""vertical-align:middle\"">---自我""]","","",""
"","","","","","html-keyboard-response","213","620992","0.0-9.0-0.0-0.0-0.1-1.75","null","<span style='color:GreenYellow; font-size: 70px;'>正确! </span>","null","","","","","","","","","","","","","","","","","","","","","","","","","feedback_test","",""
"","","","","","psychophysics","214","622668","0.0-9.0-0.0-0.0-0.1-0.76","670","","arrowleft","","","","","","","","","","","","","key","arrowleft","6.0828467153287225","853.3333333333334","476","arrowleft","true","../../test_img/19.png","自我","matching_task","自我","[""<img src=\""../../test_img/25.png\"" width=150 style=\""vertical-align:middle\"">---生人"",""<img src=\""../../test_img/12.png\"" width=150 style=\""vertical-align:middle\"">---朋友"",""<img src=\""../../test_img/19.png\"" width=150 style=\""vertical-align:middle\"">---自我""]","","",""
"","","","","","html-keyboard-response","215","623174","0.0-9.0-0.0-0.0-0.1-1.76","null","<span style='color:GreenYellow; font-size: 70px;'>正确! </span>","null","","","","","","","","","","","","","","","","","","","","","","","","","feedback_test","",""
"","","","","","psychophysics","216","624823","0.0-9.0-0.0-0.0-0.1-0.77","647","","arrowright","","","","","","","","","","","","","key","arrowright","6.221590909090909","853.3333333333334","476","arrowright","true","../../test_img/25.png","自我","matching_task","生人","[""<img src=\""../../test_img/25.png\"" width=150 style=\""vertical-align:middle\"">---生人"",""<img src=\""../../test_img/12.png\"" width=150 style=\""vertical-align:middle\"">---朋友"",""<img src=\""../../test_img/19.png\"" width=150 style=\""vertical-align:middle\"">---自我""]","","",""
"","","","","","html-keyboard-response","217","625334","0.0-9.0-0.0-0.0-0.1-1.77","null","<span style='color:GreenYellow; font-size: 70px;'>正确! </span>","null","","","","","","","","","","","","","","","","","","","","","","","","","feedback_test","",""
"","","","","","psychophysics","218","627211","0.0-9.0-0.0-0.0-0.1-0.78","876","","arrowright","","","","","","","","","","","","","key","arrowright","6.152475247524983","853.3333333333334","476","arrowright","true","../../test_img/25.png","朋友","matching_task","生人","[""<img src=\""../../test_img/25.png\"" width=150 style=\""vertical-align:middle\"">---生人"",""<img src=\""../../test_img/12.png\"" width=150 style=\""vertical-align:middle\"">---朋友"",""<img src=\""../../test_img/19.png\"" width=150 style=\""vertical-align:middle\"">---自我""]","","",""
"","","","","","html-keyboard-response","219","627716","0.0-9.0-0.0-0.0-0.1-1.78","null","<span style='color:GreenYellow; font-size: 70px;'>正确! </span>","null","","","","","","","","","","","","","","","","","","","","","","","","","feedback_test","",""
"","","","","","psychophysics","220","629352","0.0-9.0-0.0-0.0-0.1-0.79","635","","arrowleft","","","","","","","","","","","","","key","arrowleft","6.247692307692398","853.3333333333334","476","arrowleft","true","../../test_img/25.png","生人","matching_task","生人","[""<img src=\""../../test_img/25.png\"" width=150 style=\""vertical-align:middle\"">---生人"",""<img src=\""../../test_img/12.png\"" width=150 style=\""vertical-align:middle\"">---朋友"",""<img src=\""../../test_img/19.png\"" width=150 style=\""vertical-align:middle\"">---自我""]","","",""
"","","","","","html-keyboard-response","221","629859","0.0-9.0-0.0-0.0-0.1-1.79","null","<span style='color:GreenYellow; font-size: 70px;'>正确! </span>","null","","","","","","","","","","","","","","","","","","","","","","","","","feedback_test","",""
"","","","","","psychophysics","222","631592","0.0-9.0-0.0-0.0-0.1-0.80","728","","arrowright","","","","","","","","","","","","","key","arrowright","6.146975088967723","853.3333333333334","476","arrowleft","false","../../test_img/12.png","朋友","matching_task","朋友","[""<img src=\""../../test_img/25.png\"" width=150 style=\""vertical-align:middle\"">---生人"",""<img src=\""../../test_img/12.png\"" width=150 style=\""vertical-align:middle\"">---朋友"",""<img src=\""../../test_img/19.png\"" width=150 style=\""vertical-align:middle\"">---自我""]","","",""
"","","","","","html-keyboard-response","223","632098","0.0-9.0-0.0-0.0-0.1-1.80","null","<span style='color:red; font-size: 70px;'>错误! </span>","null","","","","","","","","","","","","","","","","","","","","","","","","","feedback_test","",""
"","","","","","psychophysics","224","633680","0.0-9.0-0.0-0.0-0.1-0.81","580","","arrowleft","","","","","","","","","","","","","key","arrowleft","6.228968253968069","853.3333333333334","476","arrowleft","true","../../test_img/12.png","朋友","matching_task","朋友","[""<img src=\""../../test_img/25.png\"" width=150 style=\""vertical-align:middle\"">---生人"",""<img src=\""../../test_img/12.png\"" width=150 style=\""vertical-align:middle\"">---朋友"",""<img src=\""../../test_img/19.png\"" width=150 style=\""vertical-align:middle\"">---自我""]","","",""
"","","","","","html-keyboard-response","225","634189","0.0-9.0-0.0-0.0-0.1-1.81","null","<span style='color:GreenYellow; font-size: 70px;'>正确! </span>","null","","","","","","","","","","","","","","","","","","","","","","","","","feedback_test","",""
"","","","","","psychophysics","226","635879","0.0-9.0-0.0-0.0-0.1-0.82","688","","arrowleft","","","","","","","","","","","","","key","arrowleft","6.173431734317343","853.3333333333334","476","arrowright","false","../../test_img/19.png","生人","matching_task","自我","[""<img src=\""../../test_img/25.png\"" width=150 style=\""vertical-align:middle\"">---生人"",""<img src=\""../../test_img/12.png\"" width=150 style=\""vertical-align:middle\"">---朋友"",""<img src=\""../../test_img/19.png\"" width=150 style=\""vertical-align:middle\"">---自我""]","","",""
"","","","","","html-keyboard-response","227","636387","0.0-9.0-0.0-0.0-0.1-1.82","null","<span style='color:red; font-size: 70px;'>错误! </span>","null","","","","","","","","","","","","","","","","","","","","","","","","","feedback_test","",""
"","","","","","psychophysics","228","638183","0.0-9.0-0.0-0.0-0.1-0.83","794","","arrowleft","","","","","","","","","","","","","key","arrowleft","6.144329896907217","853.3333333333334","476","arrowleft","true","../../test_img/25.png","生人","matching_task","生人","[""<img src=\""../../test_img/25.png\"" width=150 style=\""vertical-align:middle\"">---生人"",""<img src=\""../../test_img/12.png\"" width=150 style=\""vertical-align:middle\"">---朋友"",""<img src=\""../../test_img/19.png\"" width=150 style=\""vertical-align:middle\"">---自我""]","","",""
"","","","","","html-keyboard-response","229","638696","0.0-9.0-0.0-0.0-0.1-1.83","null","<span style='color:GreenYellow; font-size: 70px;'>正确! </span>","null","","","","","","","","","","","","","","","","","","","","","","","","","feedback_test","",""
"","","","","","psychophysics","230","640568","0.0-9.0-0.0-0.0-0.1-0.84","869","","arrowright","","","","","","","","","","","","","key","arrowright","6.141254125412311","853.3333333333334","476","arrowright","true","../../test_img/19.png","生人","matching_task","自我","[""<img src=\""../../test_img/25.png\"" width=150 style=\""vertical-align:middle\"">---生人"",""<img src=\""../../test_img/12.png\"" width=150 style=\""vertical-align:middle\"">---朋友"",""<img src=\""../../test_img/19.png\"" width=150 style=\""vertical-align:middle\"">---自我""]","","",""
"","","","","","html-keyboard-response","231","641076","0.0-9.0-0.0-0.0-0.1-1.84","null","<span style='color:GreenYellow; font-size: 70px;'>正确! </span>","null","","","","","","","","","","","","","","","","","","","","","","","","","feedback_test","",""
"","","","","","psychophysics","232","642945","0.0-9.0-0.0-0.0-0.1-0.85","868","","arrowright","","","","","","","","","","","","","key","arrowright","6.1","853.3333333333334","476","arrowright","true","../../test_img/19.png","朋友","matching_task","自我","[""<img src=\""../../test_img/25.png\"" width=150 style=\""vertical-align:middle\"">---生人"",""<img src=\""../../test_img/12.png\"" width=150 style=\""vertical-align:middle\"">---朋友"",""<img src=\""../../test_img/19.png\"" width=150 style=\""vertical-align:middle\"">---自我""]","","",""
"","","","","","html-keyboard-response","233","643448","0.0-9.0-0.0-0.0-0.1-1.85","null","<span style='color:GreenYellow; font-size: 70px;'>正确! </span>","null","","","","","","","","","","","","","","","","","","","","","","","","","feedback_test","",""
"","","","","","psychophysics","234","645176","0.0-9.0-0.0-0.0-0.1-0.86","726","","arrowleft","","","","","","","","","","","","","key","arrowleft","6.316985294117544","853.3333333333334","476","arrowleft","true","../../test_img/25.png","生人","matching_task","生人","[""<img src=\""../../test_img/25.png\"" width=150 style=\""vertical-align:middle\"">---生人"",""<img src=\""../../test_img/12.png\"" width=150 style=\""vertical-align:middle\"">---朋友"",""<img src=\""../../test_img/19.png\"" width=150 style=\""vertical-align:middle\"">---自我""]","","",""
"","","","","","html-keyboard-response","235","645690","0.0-9.0-0.0-0.0-0.1-1.86","null","<span style='color:GreenYellow; font-size: 70px;'>正确! </span>","null","","","","","","","","","","","","","","","","","","","","","","","","","feedback_test","",""
"","","","","","psychophysics","236","647805","0.0-9.0-0.0-0.0-0.1-0.87","1113","","arrowright","","","","","","","","","","","","","key","arrowright","6.060344827586207","853.3333333333334","476","arrowright","true","../../test_img/25.png","朋友","matching_task","生人","[""<img src=\""../../test_img/25.png\"" width=150 style=\""vertical-align:middle\"">---生人"",""<img src=\""../../test_img/12.png\"" width=150 style=\""vertical-align:middle\"">---朋友"",""<img src=\""../../test_img/19.png\"" width=150 style=\""vertical-align:middle\"">---自我""]","","",""
"","","","","","html-keyboard-response","237","648318","0.0-9.0-0.0-0.0-0.1-1.87","null","<span style='color:GreenYellow; font-size: 70px;'>正确! </span>","null","","","","","","","","","","","","","","","","","","","","","","","","","feedback_test","",""
"","","","","","psychophysics","238","649915","0.0-9.0-0.0-0.0-0.1-0.88","590","","arrowleft","","","","","","","","","","","","","key","arrowleft","6.2762845849803295","853.3333333333334","476","arrowleft","true","../../test_img/19.png","自我","matching_task","自我","[""<img src=\""../../test_img/25.png\"" width=150 style=\""vertical-align:middle\"">---生人"",""<img src=\""../../test_img/12.png\"" width=150 style=\""vertical-align:middle\"">---朋友"",""<img src=\""../../test_img/19.png\"" width=150 style=\""vertical-align:middle\"">---自我""]","","",""
"","","","","","html-keyboard-response","239","650422","0.0-9.0-0.0-0.0-0.1-1.88","null","<span style='color:GreenYellow; font-size: 70px;'>正确! </span>","null","","","","","","","","","","","","","","","","","","","","","","","","","feedback_test","",""
"","","","","","psychophysics","240","651915","0.0-9.0-0.0-0.0-0.1-0.89","488","","arrowleft","","","","","","","","","","","","","key","arrowleft","6.060816326530707","853.3333333333334","476","arrowleft","true","../../test_img/12.png","朋友","matching_task","朋友","[""<img src=\""../../test_img/25.png\"" width=150 style=\""vertical-align:middle\"">---生人"",""<img src=\""../../test_img/12.png\"" width=150 style=\""vertical-align:middle\"">---朋友"",""<img src=\""../../test_img/19.png\"" width=150 style=\""vertical-align:middle\"">---自我""]","","",""
"","","","","","html-keyboard-response","241","652430","0.0-9.0-0.0-0.0-0.1-1.89","null","<span style='color:GreenYellow; font-size: 70px;'>正确! </span>","null","","","","","","","","","","","","","","","","","","","","","","","","","feedback_test","",""
"","","","","","psychophysics","242","653994","0.0-9.0-0.0-0.0-0.1-0.90","561","","arrowleft","","","","","","","","","","","","","key","arrowleft","6.077647058823712","853.3333333333334","476","arrowleft","true","../../test_img/12.png","朋友","matching_task","朋友","[""<img src=\""../../test_img/25.png\"" width=150 style=\""vertical-align:middle\"">---生人"",""<img src=\""../../test_img/12.png\"" width=150 style=\""vertical-align:middle\"">---朋友"",""<img src=\""../../test_img/19.png\"" width=150 style=\""vertical-align:middle\"">---自我""]","","",""
"","","","","","html-keyboard-response","243","654495","0.0-9.0-0.0-0.0-0.1-1.90","null","<span style='color:GreenYellow; font-size: 70px;'>正确! </span>","null","","","","","","","","","","","","","","","","","","","","","","","","","feedback_test","",""
"","","","","","psychophysics","244","656221","0.0-9.0-0.0-0.0-0.1-0.91","722","","arrowright","","","","","","","","","","","","","key","arrowright","6.061267605633885","853.3333333333334","476","arrowright","true","../../test_img/12.png","自我","matching_task","朋友","[""<img src=\""../../test_img/25.png\"" width=150 style=\""vertical-align:middle\"">---生人"",""<img src=\""../../test_img/12.png\"" width=150 style=\""vertical-align:middle\"">---朋友"",""<img src=\""../../test_img/19.png\"" width=150 style=\""vertical-align:middle\"">---自我""]","","",""
"","","","","","html-keyboard-response","245","656735","0.0-9.0-0.0-0.0-0.1-1.91","null","<span style='color:GreenYellow; font-size: 70px;'>正确! </span>","null","","","","","","","","","","","","","","","","","","","","","","","","","feedback_test","",""
"","","","","","psychophysics","246","658467","0.0-9.0-0.0-0.0-0.1-0.92","729","","arrowleft","","","","","","","","","","","","","key","arrowleft","6.103546099290615","853.3333333333334","476","arrowleft","true","../../test_img/25.png","生人","matching_task","生人","[""<img src=\""../../test_img/25.png\"" width=150 style=\""vertical-align:middle\"">---生人"",""<img src=\""../../test_img/12.png\"" width=150 style=\""vertical-align:middle\"">---朋友"",""<img src=\""../../test_img/19.png\"" width=150 style=\""vertical-align:middle\"">---自我""]","","",""
"","","","","","html-keyboard-response","247","658974","0.0-9.0-0.0-0.0-0.1-1.92","null","<span style='color:GreenYellow; font-size: 70px;'>正确! </span>","null","","","","","","","","","","","","","","","","","","","","","","","","","feedback_test","",""
"","","","","","psychophysics","248","660571","0.0-9.0-0.0-0.0-0.1-0.93","592","","arrowleft","","","","","","","","","","","","","key","arrowleft","6.251574803149698","853.3333333333334","476","arrowleft","true","../../test_img/19.png","自我","matching_task","自我","[""<img src=\""../../test_img/25.png\"" width=150 style=\""vertical-align:middle\"">---生人"",""<img src=\""../../test_img/12.png\"" width=150 style=\""vertical-align:middle\"">---朋友"",""<img src=\""../../test_img/19.png\"" width=150 style=\""vertical-align:middle\"">---自我""]","","",""
"","","","","","html-keyboard-response","249","661074","0.0-9.0-0.0-0.0-0.1-1.93","null","<span style='color:GreenYellow; font-size: 70px;'>正确! </span>","null","","","","","","","","","","","","","","","","","","","","","","","","","feedback_test","",""
"","","","","","psychophysics","250","662759","0.0-9.0-0.0-0.0-0.1-0.94","683","","arrowright","","","","","","","","","","","","","key","arrowright","6.0829090909092605","853.3333333333334","476","arrowright","true","../../test_img/25.png","自我","matching_task","生人","[""<img src=\""../../test_img/25.png\"" width=150 style=\""vertical-align:middle\"">---生人"",""<img src=\""../../test_img/12.png\"" width=150 style=\""vertical-align:middle\"">---朋友"",""<img src=\""../../test_img/19.png\"" width=150 style=\""vertical-align:middle\"">---自我""]","","",""
"","","","","","html-keyboard-response","251","663270","0.0-9.0-0.0-0.0-0.1-1.94","null","<span style='color:GreenYellow; font-size: 70px;'>正确! </span>","null","","","","","","","","","","","","","","","","","","","","","","","","","feedback_test","",""
