"success","timeout","failed_images","failed_audio","failed_video","trial_type","trial_index","time_elapsed","internal_node_id","rt","stimulus","response","value","item_width_mm","item_height_mm","item_width_px","px2mm","view_dist_mm","item_width_deg","px2deg","scale_factor","win_width_deg","win_height_deg","view_history","response_type","key_press","avg_frame_time","center_x","center_y","correct_response","correct","Image","word","condition","shape","association","screen_id","LeftLable","RightLable"
"true","false","[]","[]","[]","preload","0","718","0.0-0.0","","","","","","","","","","","","","","","","","","","","","","","","","","","","","",""
"","","","","","html-keyboard-response","1","4277","0.0-1.0","3559","
     <p>您好，欢迎参加本次实验。</p>
     <p>为充分保障您的权利，请确保您已经知晓并同意《参与实验同意书》以及《数据公开知情同意书》。</p>
     <p>如果您未见过上述内容，请咨询实验员。</p>
     <p>如果您选择继续实验，则表示您已经清楚两份知情同意书的内容并同意。</p>
     <p> <div style = ""color: green""><按任意键至下页></div> </p>
     "," ","","","","","","","","","","","","","","","","","","","","","","","","","","",""
"","","","","","html-keyboard-response","2","30368","0.0-2.0","26091","
     <p>本实验首先需要您填写一些基本个人信息。</p>
     <p> <div style = ""color: green""><按任意键至下页></div></p>
     "," ","","","","","","","","","","","","","","","","","","","","","","","","","","",""
"","","","","","call-function","3","30369","0.0-3.0-0.0","","","","","","","","","","","","","","","","","","","","","","","","","","","","","",""
"","","","","","survey-html-form","4","46216","0.0-3.0-1.0","15846","","{""Q0"":""22""}","","","","","","","","","","","","","","","","","","","","","","","","","","",""
"","","","","","html-button-response","5","48352","0.0-3.0-2.0","2135","<p style = 'color : white'>您的性别</p>","0","","","","","","","","","","","","","","","","","","","","","","","","","","",""
"","","","","","survey-html-form","6","57096","0.0-3.0-3.0","8743","","{""Q0"":""2005""}","","","","","","","","","","","","","","","","","","","","","","","","","","",""
"","","","","","survey-html-form","7","63024","0.0-3.0-4.0","5927","","{""Q0"":""5""}","","","","","","","","","","","","","","","","","","","","","","","","","","",""
"","","","","","virtual-chinrest","8","301759","0.0-4.0","238735","","","","85.6","53.98","444.9927652406313","5.199514395993472","549.97","8.899855304812625","50","0.840463102355739","29.76","14.76","","","","","","","","","","","","","","","",""
"true","","","","","fullscreen","9","314385","0.0-5.0","","","","","","","","","","","","","","","","","","","","","","","","","","","","","",""
"","","","","","instructions","10","356655","0.0-6.0","42269","","","","","","","","","","","","","","[{""page_index"":0,""viewing_time"":11981},{""page_index"":1,""viewing_time"":5984},{""page_index"":2,""viewing_time"":10832},{""page_index"":3,""viewing_time"":10464},{""page_index"":4,""viewing_time"":3008}]","","","","","","","","","","","","","","",""
"","","","","","psychophysics","11","359161","0.0-7.0-0.0-0.0","null","","null","","","","","","","","","","","","","key","null","6.942896935933148","768","428","arrowleft","false","../../test_img/26.png","自我","prac_matching_task","自我","[""<img src=\""../../test_img/26.png\"" width=150 style=\""vertical-align:middle\"">---自我"",""<img src=\""../../test_img/22.png\"" width=150 style=\""vertical-align:middle\"">---生人"",""<img src=\""../../test_img/15.png\"" width=150 style=\""vertical-align:middle\"">---朋友""]","","",""
"","","","","","html-keyboard-response","12","359462","0.0-7.0-0.0-1.0","null","<span class='add_' style='color:yellow; font-size: 70px;'> 太慢! </span>","null","","","","","","","","","","","","","","","","","","","","","","","","","feedback_test","",""
"","","","","","psychophysics","13","361969","0.0-7.0-0.0-0.1","null","","null","","","","","","","","","","","","","key","null","6.983240223463687","768","428","arrowleft","false","../../test_img/22.png","生人","prac_matching_task","生人","[""<img src=\""../../test_img/26.png\"" width=150 style=\""vertical-align:middle\"">---自我"",""<img src=\""../../test_img/22.png\"" width=150 style=\""vertical-align:middle\"">---生人"",""<img src=\""../../test_img/15.png\"" width=150 style=\""vertical-align:middle\"">---朋友""]","","",""
"","","","","","html-keyboard-response","14","362273","0.0-7.0-0.0-1.1","null","<span class='add_' style='color:yellow; font-size: 70px;'> 太慢! </span>","null","","","","","","","","","","","","","","","","","","","","","","","","","feedback_test","",""
"","","","","","psychophysics","15","364781","0.0-7.0-0.0-0.2","null","","null","","","","","","","","","","","","","key","null","7.143553008595922","768","428","arrowright","false","../../test_img/26.png","生人","prac_matching_task","自我","[""<img src=\""../../test_img/26.png\"" width=150 style=\""vertical-align:middle\"">---自我"",""<img src=\""../../test_img/22.png\"" width=150 style=\""vertical-align:middle\"">---生人"",""<img src=\""../../test_img/15.png\"" width=150 style=\""vertical-align:middle\"">---朋友""]","","",""
"","","","","","html-keyboard-response","16","365084","0.0-7.0-0.0-1.2","null","<span class='add_' style='color:yellow; font-size: 70px;'> 太慢! </span>","null","","","","","","","","","","","","","","","","","","","","","","","","","feedback_test","",""
"","","","","","psychophysics","17","367586","0.0-7.0-0.0-0.3","null","","null","","","","","","","","","","","","","key","null","6.943854748603417","768","428","arrowright","false","../../test_img/15.png","自我","prac_matching_task","朋友","[""<img src=\""../../test_img/26.png\"" width=150 style=\""vertical-align:middle\"">---自我"",""<img src=\""../../test_img/22.png\"" width=150 style=\""vertical-align:middle\"">---生人"",""<img src=\""../../test_img/15.png\"" width=150 style=\""vertical-align:middle\"">---朋友""]","","",""
"","","","","","html-keyboard-response","18","367894","0.0-7.0-0.0-1.3","null","<span class='add_' style='color:yellow; font-size: 70px;'> 太慢! </span>","null","","","","","","","","","","","","","","","","","","","","","","","","","feedback_test","",""
"","","","","","psychophysics","19","370399","0.0-7.0-0.0-0.4","null","","null","","","","","","","","","","","","","key","null","6.963509749303686","768","428","arrowleft","false","../../test_img/22.png","生人","prac_matching_task","生人","[""<img src=\""../../test_img/26.png\"" width=150 style=\""vertical-align:middle\"">---自我"",""<img src=\""../../test_img/22.png\"" width=150 style=\""vertical-align:middle\"">---生人"",""<img src=\""../../test_img/15.png\"" width=150 style=\""vertical-align:middle\"">---朋友""]","","",""
"","","","","","html-keyboard-response","20","370703","0.0-7.0-0.0-1.4","null","<span class='add_' style='color:yellow; font-size: 70px;'> 太慢! </span>","null","","","","","","","","","","","","","","","","","","","","","","","","","feedback_test","",""
"","","","","","psychophysics","21","373216","0.0-7.0-0.0-0.5","null","","null","","","","","","","","","","","","","key","null","6.963231197771555","768","428","arrowleft","false","../../test_img/15.png","朋友","prac_matching_task","朋友","[""<img src=\""../../test_img/26.png\"" width=150 style=\""vertical-align:middle\"">---自我"",""<img src=\""../../test_img/22.png\"" width=150 style=\""vertical-align:middle\"">---生人"",""<img src=\""../../test_img/15.png\"" width=150 style=\""vertical-align:middle\"">---朋友""]","","",""
"","","","","","html-keyboard-response","22","373531","0.0-7.0-0.0-1.5","null","<span class='add_' style='color:yellow; font-size: 70px;'> 太慢! </span>","null","","","","","","","","","","","","","","","","","","","","","","","","","feedback_test","",""
"","","","","","psychophysics","23","376037","0.0-7.0-0.0-0.6","null","","null","","","","","","","","","","","","","key","null","7.204322766570672","768","428","arrowright","false","../../test_img/15.png","生人","prac_matching_task","朋友","[""<img src=\""../../test_img/26.png\"" width=150 style=\""vertical-align:middle\"">---自我"",""<img src=\""../../test_img/22.png\"" width=150 style=\""vertical-align:middle\"">---生人"",""<img src=\""../../test_img/15.png\"" width=150 style=\""vertical-align:middle\"">---朋友""]","","",""
"","","","","","html-keyboard-response","24","376350","0.0-7.0-0.0-1.6","null","<span class='add_' style='color:yellow; font-size: 70px;'> 太慢! </span>","null","","","","","","","","","","","","","","","","","","","","","","","","","feedback_test","",""
"","","","","","psychophysics","25","378857","0.0-7.0-0.0-0.7","null","","null","","","","","","","","","","","","","key","null","6.9437325905292155","768","428","arrowleft","false","../../test_img/26.png","自我","prac_matching_task","自我","[""<img src=\""../../test_img/26.png\"" width=150 style=\""vertical-align:middle\"">---自我"",""<img src=\""../../test_img/22.png\"" width=150 style=\""vertical-align:middle\"">---生人"",""<img src=\""../../test_img/15.png\"" width=150 style=\""vertical-align:middle\"">---朋友""]","","",""
"","","","","","html-keyboard-response","26","379158","0.0-7.0-0.0-1.7","null","<span class='add_' style='color:yellow; font-size: 70px;'> 太慢! </span>","null","","","","","","","","","","","","","","","","","","","","","","","","","feedback_test","",""
"","","","","","psychophysics","27","381662","0.0-7.0-0.0-0.8","null","","null","","","","","","","","","","","","","key","null","6.944289693593315","768","428","arrowleft","false","../../test_img/15.png","朋友","prac_matching_task","朋友","[""<img src=\""../../test_img/26.png\"" width=150 style=\""vertical-align:middle\"">---自我"",""<img src=\""../../test_img/22.png\"" width=150 style=\""vertical-align:middle\"">---生人"",""<img src=\""../../test_img/15.png\"" width=150 style=\""vertical-align:middle\"">---朋友""]","","",""
"","","","","","html-keyboard-response","28","381968","0.0-7.0-0.0-1.8","null","<span class='add_' style='color:yellow; font-size: 70px;'> 太慢! </span>","null","","","","","","","","","","","","","","","","","","","","","","","","","feedback_test","",""
"","","","","","psychophysics","29","384475","0.0-7.0-0.0-0.9","null","","null","","","","","","","","","","","","","key","null","6.944568245125283","768","428","arrowright","false","../../test_img/22.png","朋友","prac_matching_task","生人","[""<img src=\""../../test_img/26.png\"" width=150 style=\""vertical-align:middle\"">---自我"",""<img src=\""../../test_img/22.png\"" width=150 style=\""vertical-align:middle\"">---生人"",""<img src=\""../../test_img/15.png\"" width=150 style=\""vertical-align:middle\"">---朋友""]","","",""
"","","","","","html-keyboard-response","30","384776","0.0-7.0-0.0-1.9","null","<span class='add_' style='color:yellow; font-size: 70px;'> 太慢! </span>","null","","","","","","","","","","","","","","","","","","","","","","","","","feedback_test","",""
"","","","","","psychophysics","31","387279","0.0-7.0-0.0-0.10","null","","null","","","","","","","","","","","","","key","null","6.963407821229115","768","428","arrowright","false","../../test_img/26.png","朋友","prac_matching_task","自我","[""<img src=\""../../test_img/26.png\"" width=150 style=\""vertical-align:middle\"">---自我"",""<img src=\""../../test_img/22.png\"" width=150 style=\""vertical-align:middle\"">---生人"",""<img src=\""../../test_img/15.png\"" width=150 style=\""vertical-align:middle\"">---朋友""]","","",""
"","","","","","html-keyboard-response","32","387593","0.0-7.0-0.0-1.10","null","<span class='add_' style='color:yellow; font-size: 70px;'> 太慢! </span>","null","","","","","","","","","","","","","","","","","","","","","","","","","feedback_test","",""
"","","","","","psychophysics","33","390099","0.0-7.0-0.0-0.11","null","","null","","","","","","","","","","","","","key","null","6.944568245125446","768","428","arrowright","false","../../test_img/22.png","自我","prac_matching_task","生人","[""<img src=\""../../test_img/26.png\"" width=150 style=\""vertical-align:middle\"">---自我"",""<img src=\""../../test_img/22.png\"" width=150 style=\""vertical-align:middle\"">---生人"",""<img src=\""../../test_img/15.png\"" width=150 style=\""vertical-align:middle\"">---朋友""]","","",""
"","","","","","html-keyboard-response","34","390400","0.0-7.0-0.0-1.11","null","<span class='add_' style='color:yellow; font-size: 70px;'> 太慢! </span>","null","","","","","","","","","","","","","","","","","","","","","","","","","feedback_test","",""
"","","","","","psychophysics","35","392905","0.0-7.0-0.0-0.12","null","","null","","","","","","","","","","","","","key","null","6.9636871508379885","768","428","arrowright","false","../../test_img/26.png","朋友","prac_matching_task","自我","[""<img src=\""../../test_img/26.png\"" width=150 style=\""vertical-align:middle\"">---自我"",""<img src=\""../../test_img/22.png\"" width=150 style=\""vertical-align:middle\"">---生人"",""<img src=\""../../test_img/15.png\"" width=150 style=\""vertical-align:middle\"">---朋友""]","","",""
"","","","","","html-keyboard-response","36","393206","0.0-7.0-0.0-1.12","null","<span class='add_' style='color:yellow; font-size: 70px;'> 太慢! </span>","null","","","","","","","","","","","","","","","","","","","","","","","","","feedback_test","",""
"","","","","","psychophysics","37","395711","0.0-7.0-0.0-0.13","null","","null","","","","","","","","","","","","","key","null","6.944444444444445","768","428","arrowright","false","../../test_img/22.png","朋友","prac_matching_task","生人","[""<img src=\""../../test_img/26.png\"" width=150 style=\""vertical-align:middle\"">---自我"",""<img src=\""../../test_img/22.png\"" width=150 style=\""vertical-align:middle\"">---生人"",""<img src=\""../../test_img/15.png\"" width=150 style=\""vertical-align:middle\"">---朋友""]","","",""
"","","","","","html-keyboard-response","38","396023","0.0-7.0-0.0-1.13","null","<span class='add_' style='color:yellow; font-size: 70px;'> 太慢! </span>","null","","","","","","","","","","","","","","","","","","","","","","","","","feedback_test","",""
"","","","","","psychophysics","39","398530","0.0-7.0-0.0-0.14","null","","null","","","","","","","","","","","","","key","null","6.9636871508379885","768","428","arrowleft","false","../../test_img/26.png","自我","prac_matching_task","自我","[""<img src=\""../../test_img/26.png\"" width=150 style=\""vertical-align:middle\"">---自我"",""<img src=\""../../test_img/22.png\"" width=150 style=\""vertical-align:middle\"">---生人"",""<img src=\""../../test_img/15.png\"" width=150 style=\""vertical-align:middle\"">---朋友""]","","",""
"","","","","","html-keyboard-response","40","398831","0.0-7.0-0.0-1.14","null","<span class='add_' style='color:yellow; font-size: 70px;'> 太慢! </span>","null","","","","","","","","","","","","","","","","","","","","","","","","","feedback_test","",""
"","","","","","psychophysics","41","401335","0.0-7.0-0.0-0.15","null","","null","","","","","","","","","","","","","key","null","6.9636871508379885","768","428","arrowleft","false","../../test_img/22.png","生人","prac_matching_task","生人","[""<img src=\""../../test_img/26.png\"" width=150 style=\""vertical-align:middle\"">---自我"",""<img src=\""../../test_img/22.png\"" width=150 style=\""vertical-align:middle\"">---生人"",""<img src=\""../../test_img/15.png\"" width=150 style=\""vertical-align:middle\"">---朋友""]","","",""
"","","","","","html-keyboard-response","42","401650","0.0-7.0-0.0-1.15","null","<span class='add_' style='color:yellow; font-size: 70px;'> 太慢! </span>","null","","","","","","","","","","","","","","","","","","","","","","","","","feedback_test","",""
"","","","","","psychophysics","43","404156","0.0-7.0-0.0-0.16","null","","null","","","","","","","","","","","","","key","null","6.963788300835654","768","428","arrowright","false","../../test_img/15.png","生人","prac_matching_task","朋友","[""<img src=\""../../test_img/26.png\"" width=150 style=\""vertical-align:middle\"">---自我"",""<img src=\""../../test_img/22.png\"" width=150 style=\""vertical-align:middle\"">---生人"",""<img src=\""../../test_img/15.png\"" width=150 style=\""vertical-align:middle\"">---朋友""]","","",""
"","","","","","html-keyboard-response","44","404464","0.0-7.0-0.0-1.16","null","<span class='add_' style='color:yellow; font-size: 70px;'> 太慢! </span>","null","","","","","","","","","","","","","","","","","","","","","","","","","feedback_test","",""
"","","","","","psychophysics","45","406967","0.0-7.0-0.0-0.17","null","","null","","","","","","","","","","","","","key","null","6.9636871508379885","768","428","arrowright","false","../../test_img/22.png","自我","prac_matching_task","生人","[""<img src=\""../../test_img/26.png\"" width=150 style=\""vertical-align:middle\"">---自我"",""<img src=\""../../test_img/22.png\"" width=150 style=\""vertical-align:middle\"">---生人"",""<img src=\""../../test_img/15.png\"" width=150 style=\""vertical-align:middle\"">---朋友""]","","",""
"","","","","","html-keyboard-response","46","407280","0.0-7.0-0.0-1.17","null","<span class='add_' style='color:yellow; font-size: 70px;'> 太慢! </span>","null","","","","","","","","","","","","","","","","","","","","","","","","","feedback_test","",""
"","","","","","psychophysics","47","409787","0.0-7.0-0.0-0.18","null","","null","","","","","","","","","","","","","key","null","6.963231197771555","768","428","arrowright","false","../../test_img/15.png","自我","prac_matching_task","朋友","[""<img src=\""../../test_img/26.png\"" width=150 style=\""vertical-align:middle\"">---自我"",""<img src=\""../../test_img/22.png\"" width=150 style=\""vertical-align:middle\"">---生人"",""<img src=\""../../test_img/15.png\"" width=150 style=\""vertical-align:middle\"">---朋友""]","","",""
"","","","","","html-keyboard-response","48","410095","0.0-7.0-0.0-1.18","null","<span class='add_' style='color:yellow; font-size: 70px;'> 太慢! </span>","null","","","","","","","","","","","","","","","","","","","","","","","","","feedback_test","",""
"","","","","","psychophysics","49","412600","0.0-7.0-0.0-0.19","null","","null","","","","","","","","","","","","","key","null","7.062146892655368","768","428","arrowleft","false","../../test_img/15.png","朋友","prac_matching_task","朋友","[""<img src=\""../../test_img/26.png\"" width=150 style=\""vertical-align:middle\"">---自我"",""<img src=\""../../test_img/22.png\"" width=150 style=\""vertical-align:middle\"">---生人"",""<img src=\""../../test_img/15.png\"" width=150 style=\""vertical-align:middle\"">---朋友""]","","",""
"","","","","","html-keyboard-response","50","412903","0.0-7.0-0.0-1.19","null","<span class='add_' style='color:yellow; font-size: 70px;'> 太慢! </span>","null","","","","","","","","","","","","","","","","","","","","","","","","","feedback_test","",""
"","","","","","psychophysics","51","415405","0.0-7.0-0.0-0.20","null","","null","","","","","","","","","","","","","key","null","6.944289693593315","768","428","arrowleft","false","../../test_img/15.png","朋友","prac_matching_task","朋友","[""<img src=\""../../test_img/26.png\"" width=150 style=\""vertical-align:middle\"">---自我"",""<img src=\""../../test_img/22.png\"" width=150 style=\""vertical-align:middle\"">---生人"",""<img src=\""../../test_img/15.png\"" width=150 style=\""vertical-align:middle\"">---朋友""]","","",""
"","","","","","html-keyboard-response","52","415706","0.0-7.0-0.0-1.20","null","<span class='add_' style='color:yellow; font-size: 70px;'> 太慢! </span>","null","","","","","","","","","","","","","","","","","","","","","","","","","feedback_test","",""
"","","","","","psychophysics","53","418210","0.0-7.0-0.0-0.21","null","","null","","","","","","","","","","","","","key","null","6.944289693593315","768","428","arrowright","false","../../test_img/26.png","生人","prac_matching_task","自我","[""<img src=\""../../test_img/26.png\"" width=150 style=\""vertical-align:middle\"">---自我"",""<img src=\""../../test_img/22.png\"" width=150 style=\""vertical-align:middle\"">---生人"",""<img src=\""../../test_img/15.png\"" width=150 style=\""vertical-align:middle\"">---朋友""]","","",""
"","","","","","html-keyboard-response","54","418520","0.0-7.0-0.0-1.21","null","<span class='add_' style='color:yellow; font-size: 70px;'> 太慢! </span>","null","","","","","","","","","","","","","","","","","","","","","","","","","feedback_test","",""
"","","","","","psychophysics","55","421022","0.0-7.0-0.0-0.22","null","","null","","","","","","","","","","","","","key","null","6.944011142061346","768","428","arrowleft","false","../../test_img/26.png","自我","prac_matching_task","自我","[""<img src=\""../../test_img/26.png\"" width=150 style=\""vertical-align:middle\"">---自我"",""<img src=\""../../test_img/22.png\"" width=150 style=\""vertical-align:middle\"">---生人"",""<img src=\""../../test_img/15.png\"" width=150 style=\""vertical-align:middle\"">---朋友""]","","",""
"","","","","","html-keyboard-response","56","421335","0.0-7.0-0.0-1.22","null","<span class='add_' style='color:yellow; font-size: 70px;'> 太慢! </span>","null","","","","","","","","","","","","","","","","","","","","","","","","","feedback_test","",""
"","","","","","psychophysics","57","423842","0.0-7.0-0.0-0.23","null","","null","","","","","","","","","","","","","key","null","6.944166666666732","768","428","arrowleft","false","../../test_img/22.png","生人","prac_matching_task","生人","[""<img src=\""../../test_img/26.png\"" width=150 style=\""vertical-align:middle\"">---自我"",""<img src=\""../../test_img/22.png\"" width=150 style=\""vertical-align:middle\"">---生人"",""<img src=\""../../test_img/15.png\"" width=150 style=\""vertical-align:middle\"">---朋友""]","","",""
"","","","","","html-keyboard-response","58","424143","0.0-7.0-0.0-1.23","null","<span class='add_' style='color:yellow; font-size: 70px;'> 太慢! </span>","null","","","","","","","","","","","","","","","","","","","","","","","","","feedback_test","",""
"","","","","","html-keyboard-response","59","469511","0.0-7.0-1.0-0.0","45367","<style>.context{color:white; font-size: 35px; line-height:40px}</style>                          <div><p class='context'>您正确回答了0% 的试次。</p ><p class='context'>您的平均反应时为NaN毫秒。</p >"," ","","","","","","","","","","","","","","","","","","","","","","","","","","",""
"","","","","","instructions","60","487703","0.0-7.0-1.0-1.0","18191","","","","","","","","","","","","","","[{""page_index"":0,""viewing_time"":3247},{""page_index"":1,""viewing_time"":8088},{""page_index"":2,""viewing_time"":5672},{""page_index"":3,""viewing_time"":1184}]","","","","","","","","","","","","","","",""
"","","","","","psychophysics","61","488935","0.0-7.1-0.1-0.24","227","","arrowleft","","","","","","","","","","","","","key","arrowleft","6.944318181818248","768","428","arrowright","false","../../test_img/22.png","自我","prac_matching_task","生人","[""<img src=\""../../test_img/26.png\"" width=150 style=\""vertical-align:middle\"">---自我"",""<img src=\""../../test_img/22.png\"" width=150 style=\""vertical-align:middle\"">---生人"",""<img src=\""../../test_img/15.png\"" width=150 style=\""vertical-align:middle\"">---朋友""]","","",""
"","","","","","html-keyboard-response","62","489247","0.0-7.1-0.1-1.24","null","<span style='color:red; font-size: 70px;'>错误! </span>","null","","","","","","","","","","","","","","","","","","","","","","","","","feedback_test","",""
"","","","","","psychophysics","63","490455","0.0-7.1-0.1-0.25","205","","arrowright","","","","","","","","","","","","","key","arrowright","6.943930635838083","768","428","arrowleft","false","../../test_img/26.png","自我","prac_matching_task","自我","[""<img src=\""../../test_img/26.png\"" width=150 style=\""vertical-align:middle\"">---自我"",""<img src=\""../../test_img/22.png\"" width=150 style=\""vertical-align:middle\"">---生人"",""<img src=\""../../test_img/15.png\"" width=150 style=\""vertical-align:middle\"">---朋友""]","","",""
"","","","","","html-keyboard-response","64","490756","0.0-7.1-0.1-1.25","null","<span style='color:red; font-size: 70px;'>错误! </span>","null","","","","","","","","","","","","","","","","","","","","","","","","","feedback_test","",""
"","","","","","psychophysics","65","491983","0.0-7.1-0.1-0.26","226","","arrowleft","","","","","","","","","","","","","key","arrowleft","6.943428571428439","768","428","arrowright","false","../../test_img/22.png","朋友","prac_matching_task","生人","[""<img src=\""../../test_img/26.png\"" width=150 style=\""vertical-align:middle\"">---自我"",""<img src=\""../../test_img/22.png\"" width=150 style=\""vertical-align:middle\"">---生人"",""<img src=\""../../test_img/15.png\"" width=150 style=\""vertical-align:middle\"">---朋友""]","","",""
"","","","","","html-keyboard-response","66","492285","0.0-7.1-0.1-1.26","null","<span style='color:red; font-size: 70px;'>错误! </span>","null","","","","","","","","","","","","","","","","","","","","","","","","","feedback_test","",""
"","","","","","psychophysics","67","493567","0.0-7.1-0.1-0.27","275","","arrowright","","","","","","","","","","","","","key","arrowright","6.944262295081904","768","428","arrowright","true","../../test_img/26.png","朋友","prac_matching_task","自我","[""<img src=\""../../test_img/26.png\"" width=150 style=\""vertical-align:middle\"">---自我"",""<img src=\""../../test_img/22.png\"" width=150 style=\""vertical-align:middle\"">---生人"",""<img src=\""../../test_img/15.png\"" width=150 style=\""vertical-align:middle\"">---朋友""]","","",""
"","","","","","html-keyboard-response","68","493873","0.0-7.1-0.1-1.27","null","<span style='color:GreenYellow; font-size: 70px;'>正确! </span>","null","","","","","","","","","","","","","","","","","","","","","","","","","feedback_test","",""
"","","","","","psychophysics","69","495215","0.0-7.1-0.1-0.28","341","","arrowright","","","","","","","","","","","","","key","arrowright","6.942408376963351","768","428","arrowleft","false","../../test_img/26.png","自我","prac_matching_task","自我","[""<img src=\""../../test_img/26.png\"" width=150 style=\""vertical-align:middle\"">---自我"",""<img src=\""../../test_img/22.png\"" width=150 style=\""vertical-align:middle\"">---生人"",""<img src=\""../../test_img/15.png\"" width=150 style=\""vertical-align:middle\"">---朋友""]","","",""
"","","","","","html-keyboard-response","70","495529","0.0-7.1-0.1-1.28","null","<span style='color:red; font-size: 70px;'>错误! </span>","null","","","","","","","","","","","","","","","","","","","","","","","","","feedback_test","",""
"","","","","","psychophysics","71","496759","0.0-7.1-0.1-0.29","224","","arrowleft","","","","","","","","","","","","","key","arrowleft","6.944886363636297","768","428","arrowleft","true","../../test_img/15.png","朋友","prac_matching_task","朋友","[""<img src=\""../../test_img/26.png\"" width=150 style=\""vertical-align:middle\"">---自我"",""<img src=\""../../test_img/22.png\"" width=150 style=\""vertical-align:middle\"">---生人"",""<img src=\""../../test_img/15.png\"" width=150 style=\""vertical-align:middle\"">---朋友""]","","",""
"","","","","","html-keyboard-response","72","497067","0.0-7.1-0.1-1.29","null","<span style='color:GreenYellow; font-size: 70px;'>正确! </span>","null","","","","","","","","","","","","","","","","","","","","","","","","","feedback_test","",""
"","","","","","psychophysics","73","498287","0.0-7.1-0.1-0.30","218","","arrowright","","","","","","","","","","","","","key","arrowright","6.9439999999997335","768","428","arrowleft","false","../../test_img/22.png","生人","prac_matching_task","生人","[""<img src=\""../../test_img/26.png\"" width=150 style=\""vertical-align:middle\"">---自我"",""<img src=\""../../test_img/22.png\"" width=150 style=\""vertical-align:middle\"">---生人"",""<img src=\""../../test_img/15.png\"" width=150 style=\""vertical-align:middle\"">---朋友""]","","",""
"","","","","","html-keyboard-response","74","498588","0.0-7.1-0.1-1.30","null","<span style='color:red; font-size: 70px;'>错误! </span>","null","","","","","","","","","","","","","","","","","","","","","","","","","feedback_test","",""
"","","","","","psychophysics","75","499807","0.0-7.1-0.1-0.31","217","","arrowleft","","","","","","","","","","","","","key","arrowleft","6.944571428571362","768","428","arrowright","false","../../test_img/15.png","生人","prac_matching_task","朋友","[""<img src=\""../../test_img/26.png\"" width=150 style=\""vertical-align:middle\"">---自我"",""<img src=\""../../test_img/22.png\"" width=150 style=\""vertical-align:middle\"">---生人"",""<img src=\""../../test_img/15.png\"" width=150 style=\""vertical-align:middle\"">---朋友""]","","",""
"","","","","","html-keyboard-response","76","500113","0.0-7.1-0.1-1.31","null","<span style='color:red; font-size: 70px;'>错误! </span>","null","","","","","","","","","","","","","","","","","","","","","","","","","feedback_test","",""
"","","","","","psychophysics","77","502617","0.0-7.1-0.1-0.32","null","","null","","","","","","","","","","","","","key","null","6.944568245125283","768","428","arrowright","false","../../test_img/26.png","生人","prac_matching_task","自我","[""<img src=\""../../test_img/26.png\"" width=150 style=\""vertical-align:middle\"">---自我"",""<img src=\""../../test_img/22.png\"" width=150 style=\""vertical-align:middle\"">---生人"",""<img src=\""../../test_img/15.png\"" width=150 style=\""vertical-align:middle\"">---朋友""]","","",""
"","","","","","html-keyboard-response","78","502918","0.0-7.1-0.1-1.32","null","<span class='add_' style='color:yellow; font-size: 70px;'> 太慢! </span>","null","","","","","","","","","","","","","","","","","","","","","","","","","feedback_test","",""
"","","","","","psychophysics","79","504055","0.0-7.1-0.1-0.33","132","","arrowright","","","","","","","","","","","","","key","arrowright","6.94417177914089","768","428","arrowleft","false","../../test_img/22.png","生人","prac_matching_task","生人","[""<img src=\""../../test_img/26.png\"" width=150 style=\""vertical-align:middle\"">---自我"",""<img src=\""../../test_img/22.png\"" width=150 style=\""vertical-align:middle\"">---生人"",""<img src=\""../../test_img/15.png\"" width=150 style=\""vertical-align:middle\"">---朋友""]","","",""
"","","","","","html-keyboard-response","80","504361","0.0-7.1-0.1-1.33","null","<span style='color:yellow; font-size: 70px;'>过快! </span>","null","","","","","","","","","","","","","","","","","","","","","","","","","feedback_test","",""
"","","","","","psychophysics","81","505776","0.0-7.1-0.1-0.34","414","","arrowleft","","","","","","","","","","","","","key","arrowleft","6.944059405940652","768","428","arrowright","false","../../test_img/15.png","自我","prac_matching_task","朋友","[""<img src=\""../../test_img/26.png\"" width=150 style=\""vertical-align:middle\"">---自我"",""<img src=\""../../test_img/22.png\"" width=150 style=\""vertical-align:middle\"">---生人"",""<img src=\""../../test_img/15.png\"" width=150 style=\""vertical-align:middle\"">---朋友""]","","",""
"","","","","","html-keyboard-response","82","506088","0.0-7.1-0.1-1.34","null","<span style='color:red; font-size: 70px;'>错误! </span>","null","","","","","","","","","","","","","","","","","","","","","","","","","feedback_test","",""
"","","","","","psychophysics","83","507159","0.0-7.1-0.1-0.35","70","","arrowright","","","","","","","","","","","","","key","arrowright","6.942105263157972","768","428","arrowleft","false","../../test_img/15.png","朋友","prac_matching_task","朋友","[""<img src=\""../../test_img/26.png\"" width=150 style=\""vertical-align:middle\"">---自我"",""<img src=\""../../test_img/22.png\"" width=150 style=\""vertical-align:middle\"">---生人"",""<img src=\""../../test_img/15.png\"" width=150 style=\""vertical-align:middle\"">---朋友""]","","",""
"","","","","","html-keyboard-response","84","507472","0.0-7.1-0.1-1.35","null","<span style='color:yellow; font-size: 70px;'>过快! </span>","null","","","","","","","","","","","","","","","","","","","","","","","","","feedback_test","",""
"","","","","","psychophysics","85","508767","0.0-7.1-0.1-0.36","289","","arrowright","","","","","","","","","","","","","key","arrowright","6.944324324324072","768","428","arrowright","true","../../test_img/22.png","自我","prac_matching_task","生人","[""<img src=\""../../test_img/26.png\"" width=150 style=\""vertical-align:middle\"">---自我"",""<img src=\""../../test_img/22.png\"" width=150 style=\""vertical-align:middle\"">---生人"",""<img src=\""../../test_img/15.png\"" width=150 style=\""vertical-align:middle\"">---朋友""]","","",""
"","","","","","html-keyboard-response","86","509077","0.0-7.1-0.1-1.36","null","<span style='color:GreenYellow; font-size: 70px;'>正确! </span>","null","","","","","","","","","","","","","","","","","","","","","","","","","feedback_test","",""
"","","","","","psychophysics","87","510415","0.0-7.1-0.1-0.37","332","","arrowright","","","","","","","","","","","","","key","arrowright","6.945026178010472","768","428","arrowright","true","../../test_img/22.png","朋友","prac_matching_task","生人","[""<img src=\""../../test_img/26.png\"" width=150 style=\""vertical-align:middle\"">---自我"",""<img src=\""../../test_img/22.png\"" width=150 style=\""vertical-align:middle\"">---生人"",""<img src=\""../../test_img/15.png\"" width=150 style=\""vertical-align:middle\"">---朋友""]","","",""
"","","","","","html-keyboard-response","88","510724","0.0-7.1-0.1-1.37","null","<span style='color:GreenYellow; font-size: 70px;'>正确! </span>","null","","","","","","","","","","","","","","","","","","","","","","","","","feedback_test","",""
"","","","","","psychophysics","89","511991","0.0-7.1-0.1-0.38","262","","arrowleft","","","","","","","","","","","","","key","arrowleft","6.94475138121547","768","428","arrowright","false","../../test_img/26.png","朋友","prac_matching_task","自我","[""<img src=\""../../test_img/26.png\"" width=150 style=\""vertical-align:middle\"">---自我"",""<img src=\""../../test_img/22.png\"" width=150 style=\""vertical-align:middle\"">---生人"",""<img src=\""../../test_img/15.png\"" width=150 style=\""vertical-align:middle\"">---朋友""]","","",""
"","","","","","html-keyboard-response","90","512307","0.0-7.1-0.1-1.38","null","<span style='color:red; font-size: 70px;'>错误! </span>","null","","","","","","","","","","","","","","","","","","","","","","","","","feedback_test","",""
"","","","","","psychophysics","91","513511","0.0-7.1-0.1-0.39","199","","arrowright","","","","","","","","","","","","","key","arrowright","6.943604651162723","768","428","arrowleft","false","../../test_img/26.png","自我","prac_matching_task","自我","[""<img src=\""../../test_img/26.png\"" width=150 style=\""vertical-align:middle\"">---自我"",""<img src=\""../../test_img/22.png\"" width=150 style=\""vertical-align:middle\"">---生人"",""<img src=\""../../test_img/15.png\"" width=150 style=\""vertical-align:middle\"">---朋友""]","","",""
"","","","","","html-keyboard-response","92","513815","0.0-7.1-0.1-1.39","null","<span style='color:yellow; font-size: 70px;'>过快! </span>","null","","","","","","","","","","","","","","","","","","","","","","","","","feedback_test","",""
"","","","","","psychophysics","93","515111","0.0-7.1-0.1-0.40","293","","arrowright","","","","","","","","","","","","","key","arrowright","6.944623655914041","768","428","arrowleft","false","../../test_img/15.png","朋友","prac_matching_task","朋友","[""<img src=\""../../test_img/26.png\"" width=150 style=\""vertical-align:middle\"">---自我"",""<img src=\""../../test_img/22.png\"" width=150 style=\""vertical-align:middle\"">---生人"",""<img src=\""../../test_img/15.png\"" width=150 style=\""vertical-align:middle\"">---朋友""]","","",""
"","","","","","html-keyboard-response","94","515420","0.0-7.1-0.1-1.40","null","<span style='color:red; font-size: 70px;'>错误! </span>","null","","","","","","","","","","","","","","","","","","","","","","","","","feedback_test","",""
"","","","","","psychophysics","95","516671","0.0-7.1-0.1-0.41","248","","arrowleft","","","","","","","","","","","","","key","arrowleft","6.944134078212291","768","428","arrowright","false","../../test_img/15.png","自我","prac_matching_task","朋友","[""<img src=\""../../test_img/26.png\"" width=150 style=\""vertical-align:middle\"">---自我"",""<img src=\""../../test_img/22.png\"" width=150 style=\""vertical-align:middle\"">---生人"",""<img src=\""../../test_img/15.png\"" width=150 style=\""vertical-align:middle\"">---朋友""]","","",""
"","","","","","html-keyboard-response","96","516981","0.0-7.1-0.1-1.41","null","<span style='color:red; font-size: 70px;'>错误! </span>","null","","","","","","","","","","","","","","","","","","","","","","","","","feedback_test","",""
"","","","","","psychophysics","97","518223","0.0-7.1-0.1-0.42","238","","arrowright","","","","","","","","","","","","","key","arrowright","6.944382022472106","768","428","arrowleft","false","../../test_img/22.png","生人","prac_matching_task","生人","[""<img src=\""../../test_img/26.png\"" width=150 style=\""vertical-align:middle\"">---自我"",""<img src=\""../../test_img/22.png\"" width=150 style=\""vertical-align:middle\"">---生人"",""<img src=\""../../test_img/15.png\"" width=150 style=\""vertical-align:middle\"">---朋友""]","","",""
"","","","","","html-keyboard-response","98","518538","0.0-7.1-0.1-1.42","null","<span style='color:red; font-size: 70px;'>错误! </span>","null","","","","","","","","","","","","","","","","","","","","","","","","","feedback_test","",""
"","","","","","psychophysics","99","519791","0.0-7.1-0.1-0.43","250","","arrowright","","","","","","","","","","","","","key","arrowright","6.943575418994218","768","428","arrowleft","false","../../test_img/26.png","自我","prac_matching_task","自我","[""<img src=\""../../test_img/26.png\"" width=150 style=\""vertical-align:middle\"">---自我"",""<img src=\""../../test_img/22.png\"" width=150 style=\""vertical-align:middle\"">---生人"",""<img src=\""../../test_img/15.png\"" width=150 style=\""vertical-align:middle\"">---朋友""]","","",""
"","","","","","html-keyboard-response","100","520095","0.0-7.1-0.1-1.43","null","<span style='color:red; font-size: 70px;'>错误! </span>","null","","","","","","","","","","","","","","","","","","","","","","","","","feedback_test","",""
"","","","","","psychophysics","101","521327","0.0-7.1-0.1-0.44","231","","arrowleft","","","","","","","","","","","","","key","arrowleft","6.942045454545388","768","428","arrowleft","true","../../test_img/22.png","生人","prac_matching_task","生人","[""<img src=\""../../test_img/26.png\"" width=150 style=\""vertical-align:middle\"">---自我"",""<img src=\""../../test_img/22.png\"" width=150 style=\""vertical-align:middle\"">---生人"",""<img src=\""../../test_img/15.png\"" width=150 style=\""vertical-align:middle\"">---朋友""]","","",""
"","","","","","html-keyboard-response","102","521638","0.0-7.1-0.1-1.44","null","<span style='color:GreenYellow; font-size: 70px;'>正确! </span>","null","","","","","","","","","","","","","","","","","","","","","","","","","feedback_test","",""
"","","","","","psychophysics","103","522951","0.0-7.1-0.1-0.45","313","","arrowright","","","","","","","","","","","","","key","arrowright","6.944148936169904","768","428","arrowright","true","../../test_img/26.png","生人","prac_matching_task","自我","[""<img src=\""../../test_img/26.png\"" width=150 style=\""vertical-align:middle\"">---自我"",""<img src=\""../../test_img/22.png\"" width=150 style=\""vertical-align:middle\"">---生人"",""<img src=\""../../test_img/15.png\"" width=150 style=\""vertical-align:middle\"">---朋友""]","","",""
"","","","","","html-keyboard-response","104","523261","0.0-7.1-0.1-1.45","null","<span style='color:GreenYellow; font-size: 70px;'>正确! </span>","null","","","","","","","","","","","","","","","","","","","","","","","","","feedback_test","",""
"","","","","","psychophysics","105","524528","0.0-7.1-0.1-0.46","264","","arrowleft","","","","","","","","","","","","","key","arrowleft","6.937016574585507","768","428","arrowleft","true","../../test_img/15.png","朋友","prac_matching_task","朋友","[""<img src=\""../../test_img/26.png\"" width=150 style=\""vertical-align:middle\"">---自我"",""<img src=\""../../test_img/22.png\"" width=150 style=\""vertical-align:middle\"">---生人"",""<img src=\""../../test_img/15.png\"" width=150 style=\""vertical-align:middle\"">---朋友""]","","",""
"","","","","","html-keyboard-response","106","524843","0.0-7.1-0.1-1.46","null","<span style='color:GreenYellow; font-size: 70px;'>正确! </span>","null","","","","","","","","","","","","","","","","","","","","","","","","","feedback_test","",""
"","","","","","psychophysics","107","526128","0.0-7.1-0.1-0.47","282","","arrowright","","","","","","","","","","","","","key","arrowright","6.944565217391557","768","428","arrowright","true","../../test_img/15.png","生人","prac_matching_task","朋友","[""<img src=\""../../test_img/26.png\"" width=150 style=\""vertical-align:middle\"">---自我"",""<img src=\""../../test_img/22.png\"" width=150 style=\""vertical-align:middle\"">---生人"",""<img src=\""../../test_img/15.png\"" width=150 style=\""vertical-align:middle\"">---朋友""]","","",""
"","","","","","html-keyboard-response","108","526429","0.0-7.1-0.1-1.47","null","<span style='color:GreenYellow; font-size: 70px;'>正确! </span>","null","","","","","","","","","","","","","","","","","","","","","","","","","feedback_test","",""
"","","","","","html-keyboard-response","109","534895","0.0-7.1-1.1-0.1","8465","<style>.context{color:white; font-size: 35px; line-height:40px}</style>                          <div><p class='context'>您正确回答了33% 的试次。</p ><p class='context'>您的平均反应时为276毫秒。</p >"," ","","","","","","","","","","","","","","","","","","","","","","","","","","",""
"","","","","","instructions","110","555120","0.0-7.1-1.1-1.1","20224","","","","","","","","","","","","","","[{""page_index"":0,""viewing_time"":2663},{""page_index"":1,""viewing_time"":13834},{""page_index"":2,""viewing_time"":2318},{""page_index"":3,""viewing_time"":1409}]","","","","","","","","","","","","","","",""
"","","","","","psychophysics","111","556455","0.0-7.2-0.2-0.48","332","","arrowleft","","","","","","","","","","","","","key","arrowleft","6.945026178010472","768","428","arrowright","false","../../test_img/22.png","朋友","prac_matching_task","生人","[""<img src=\""../../test_img/26.png\"" width=150 style=\""vertical-align:middle\"">---自我"",""<img src=\""../../test_img/22.png\"" width=150 style=\""vertical-align:middle\"">---生人"",""<img src=\""../../test_img/15.png\"" width=150 style=\""vertical-align:middle\"">---朋友""]","","",""
"","","","","","html-keyboard-response","112","556762","0.0-7.2-0.2-1.48","null","<span style='color:red; font-size: 70px;'>错误! </span>","null","","","","","","","","","","","","","","","","","","","","","","","","","feedback_test","",""
"","","","","","psychophysics","113","558295","0.0-7.2-0.2-0.49","533","","arrowright","","","","","","","","","","","","","key","arrowright","6.943835616438143","768","428","arrowleft","false","../../test_img/26.png","自我","prac_matching_task","自我","[""<img src=\""../../test_img/26.png\"" width=150 style=\""vertical-align:middle\"">---自我"",""<img src=\""../../test_img/22.png\"" width=150 style=\""vertical-align:middle\"">---生人"",""<img src=\""../../test_img/15.png\"" width=150 style=\""vertical-align:middle\"">---朋友""]","","",""
"","","","","","html-keyboard-response","114","558603","0.0-7.2-0.2-1.49","null","<span style='color:red; font-size: 70px;'>错误! </span>","null","","","","","","","","","","","","","","","","","","","","","","","","","feedback_test","",""
"","","","","","psychophysics","115","559863","0.0-7.2-0.2-0.50","254","","arrowleft","","","","","","","","","","","","","key","arrowleft","6.943888888889019","768","428","arrowright","false","../../test_img/15.png","生人","prac_matching_task","朋友","[""<img src=\""../../test_img/26.png\"" width=150 style=\""vertical-align:middle\"">---自我"",""<img src=\""../../test_img/22.png\"" width=150 style=\""vertical-align:middle\"">---生人"",""<img src=\""../../test_img/15.png\"" width=150 style=\""vertical-align:middle\"">---朋友""]","","",""
"","","","","","html-keyboard-response","116","560164","0.0-7.2-0.2-1.50","null","<span style='color:red; font-size: 70px;'>错误! </span>","null","","","","","","","","","","","","","","","","","","","","","","","","","feedback_test","",""
"","","","","","psychophysics","117","561495","0.0-7.2-0.2-0.51","330","","arrowright","","","","","","","","","","","","","key","arrowright","6.944210526315912","768","428","arrowleft","false","../../test_img/15.png","朋友","prac_matching_task","朋友","[""<img src=\""../../test_img/26.png\"" width=150 style=\""vertical-align:middle\"">---自我"",""<img src=\""../../test_img/22.png\"" width=150 style=\""vertical-align:middle\"">---生人"",""<img src=\""../../test_img/15.png\"" width=150 style=\""vertical-align:middle\"">---朋友""]","","",""
"","","","","","html-keyboard-response","118","561799","0.0-7.2-0.2-1.51","null","<span style='color:red; font-size: 70px;'>错误! </span>","null","","","","","","","","","","","","","","","","","","","","","","","","","feedback_test","",""
"","","","","","psychophysics","119","562822","0.0-7.2-0.2-0.52","19","","arrowleft","","","","","","","","","","","","","key","arrowleft","6.943835616438675","768","428","arrowleft","true","../../test_img/22.png","生人","prac_matching_task","生人","[""<img src=\""../../test_img/26.png\"" width=150 style=\""vertical-align:middle\"">---自我"",""<img src=\""../../test_img/22.png\"" width=150 style=\""vertical-align:middle\"">---生人"",""<img src=\""../../test_img/15.png\"" width=150 style=\""vertical-align:middle\"">---朋友""]","","",""
"","","","","","html-keyboard-response","120","563126","0.0-7.2-0.2-1.52","null","<span style='color:yellow; font-size: 70px;'>过快! </span>","null","","","","","","","","","","","","","","","","","","","","","","","","","feedback_test","",""
"","","","","","psychophysics","121","564367","0.0-7.2-0.2-0.53","237","","arrowleft","","","","","","","","","","","","","key","arrowleft","6.944943820225111","768","428","arrowright","false","../../test_img/22.png","自我","prac_matching_task","生人","[""<img src=\""../../test_img/26.png\"" width=150 style=\""vertical-align:middle\"">---自我"",""<img src=\""../../test_img/22.png\"" width=150 style=\""vertical-align:middle\"">---生人"",""<img src=\""../../test_img/15.png\"" width=150 style=\""vertical-align:middle\"">---朋友""]","","",""
"","","","","","html-keyboard-response","122","564670","0.0-7.2-0.2-1.53","null","<span style='color:red; font-size: 70px;'>错误! </span>","null","","","","","","","","","","","","","","","","","","","","","","","","","feedback_test","",""
"","","","","","psychophysics","123","565895","0.0-7.2-0.2-0.54","224","","arrowright","","","","","","","","","","","","","key","arrowright","6.944318181817917","768","428","arrowleft","false","../../test_img/26.png","自我","prac_matching_task","自我","[""<img src=\""../../test_img/26.png\"" width=150 style=\""vertical-align:middle\"">---自我"",""<img src=\""../../test_img/22.png\"" width=150 style=\""vertical-align:middle\"">---生人"",""<img src=\""../../test_img/15.png\"" width=150 style=\""vertical-align:middle\"">---朋友""]","","",""
"","","","","","html-keyboard-response","124","566209","0.0-7.2-0.2-1.54","null","<span style='color:red; font-size: 70px;'>错误! </span>","null","","","","","","","","","","","","","","","","","","","","","","","","","feedback_test","",""
"","","","","","psychophysics","125","567463","0.0-7.2-0.2-0.55","250","","arrowleft","","","","","","","","","","","","","key","arrowleft","6.945810055866182","768","428","arrowright","false","../../test_img/26.png","生人","prac_matching_task","自我","[""<img src=\""../../test_img/26.png\"" width=150 style=\""vertical-align:middle\"">---自我"",""<img src=\""../../test_img/22.png\"" width=150 style=\""vertical-align:middle\"">---生人"",""<img src=\""../../test_img/15.png\"" width=150 style=\""vertical-align:middle\"">---朋友""]","","",""
"","","","","","html-keyboard-response","126","567764","0.0-7.2-0.2-1.55","null","<span style='color:red; font-size: 70px;'>错误! </span>","null","","","","","","","","","","","","","","","","","","","","","","","","","feedback_test","",""
"","","","","","psychophysics","127","569023","0.0-7.2-0.2-0.56","254","","arrowleft","","","","","","","","","","","","","key","arrowleft","6.944444444444445","768","428","arrowleft","true","../../test_img/22.png","生人","prac_matching_task","生人","[""<img src=\""../../test_img/26.png\"" width=150 style=\""vertical-align:middle\"">---自我"",""<img src=\""../../test_img/22.png\"" width=150 style=\""vertical-align:middle\"">---生人"",""<img src=\""../../test_img/15.png\"" width=150 style=\""vertical-align:middle\"">---朋友""]","","",""
"","","","","","html-keyboard-response","128","569335","0.0-7.2-0.2-1.56","null","<span style='color:GreenYellow; font-size: 70px;'>正确! </span>","null","","","","","","","","","","","","","","","","","","","","","","","","","feedback_test","",""
"","","","","","psychophysics","129","570647","0.0-7.2-0.2-0.57","309","","arrowright","","","","","","","","","","","","","key","arrowright","6.944680851063706","768","428","arrowright","true","../../test_img/26.png","朋友","prac_matching_task","自我","[""<img src=\""../../test_img/26.png\"" width=150 style=\""vertical-align:middle\"">---自我"",""<img src=\""../../test_img/22.png\"" width=150 style=\""vertical-align:middle\"">---生人"",""<img src=\""../../test_img/15.png\"" width=150 style=\""vertical-align:middle\"">---朋友""]","","",""
"","","","","","html-keyboard-response","130","570962","0.0-7.2-0.2-1.57","null","<span style='color:GreenYellow; font-size: 70px;'>正确! </span>","null","","","","","","","","","","","","","","","","","","","","","","","","","feedback_test","",""
"","","","","","psychophysics","131","572208","0.0-7.2-0.2-0.58","244","","arrowleft","","","","","","","","","","","","","key","arrowleft","6.935955056179645","768","428","arrowleft","true","../../test_img/15.png","朋友","prac_matching_task","朋友","[""<img src=\""../../test_img/26.png\"" width=150 style=\""vertical-align:middle\"">---自我"",""<img src=\""../../test_img/22.png\"" width=150 style=\""vertical-align:middle\"">---生人"",""<img src=\""../../test_img/15.png\"" width=150 style=\""vertical-align:middle\"">---朋友""]","","",""
"","","","","","html-keyboard-response","132","572512","0.0-7.2-0.2-1.58","null","<span style='color:GreenYellow; font-size: 70px;'>正确! </span>","null","","","","","","","","","","","","","","","","","","","","","","","","","feedback_test","",""
"","","","","","psychophysics","133","573784","0.0-7.2-0.2-0.59","265","","arrowright","","","","","","","","","","","","","key","arrowright","6.982777777777907","768","428","arrowright","true","../../test_img/15.png","自我","prac_matching_task","朋友","[""<img src=\""../../test_img/26.png\"" width=150 style=\""vertical-align:middle\"">---自我"",""<img src=\""../../test_img/22.png\"" width=150 style=\""vertical-align:middle\"">---生人"",""<img src=\""../../test_img/15.png\"" width=150 style=\""vertical-align:middle\"">---朋友""]","","",""
"","","","","","html-keyboard-response","134","574089","0.0-7.2-0.2-1.59","null","<span style='color:GreenYellow; font-size: 70px;'>正确! </span>","null","","","","","","","","","","","","","","","","","","","","","","","","","feedback_test","",""
"","","","","","psychophysics","135","575327","0.0-7.2-0.2-0.60","235","","arrowleft","","","","","","","","","","","","","key","arrowleft","6.944067796610038","768","428","arrowleft","true","../../test_img/15.png","朋友","prac_matching_task","朋友","[""<img src=\""../../test_img/26.png\"" width=150 style=\""vertical-align:middle\"">---自我"",""<img src=\""../../test_img/22.png\"" width=150 style=\""vertical-align:middle\"">---生人"",""<img src=\""../../test_img/15.png\"" width=150 style=\""vertical-align:middle\"">---朋友""]","","",""
"","","","","","html-keyboard-response","136","575640","0.0-7.2-0.2-1.60","null","<span style='color:GreenYellow; font-size: 70px;'>正确! </span>","null","","","","","","","","","","","","","","","","","","","","","","","","","feedback_test","",""
"","","","","","psychophysics","137","576887","0.0-7.2-0.2-0.61","243","","arrowright","","","","","","","","","","","","","key","arrowright","6.944692737430038","768","428","arrowright","true","../../test_img/15.png","自我","prac_matching_task","朋友","[""<img src=\""../../test_img/26.png\"" width=150 style=\""vertical-align:middle\"">---自我"",""<img src=\""../../test_img/22.png\"" width=150 style=\""vertical-align:middle\"">---生人"",""<img src=\""../../test_img/15.png\"" width=150 style=\""vertical-align:middle\"">---朋友""]","","",""
"","","","","","html-keyboard-response","138","577197","0.0-7.2-0.2-1.61","null","<span style='color:GreenYellow; font-size: 70px;'>正确! </span>","null","","","","","","","","","","","","","","","","","","","","","","","","","feedback_test","",""
"","","","","","psychophysics","139","578423","0.0-7.2-0.2-0.62","223","","arrowleft","","","","","","","","","","","","","key","arrowleft","6.944318181817917","768","428","arrowright","false","../../test_img/22.png","自我","prac_matching_task","生人","[""<img src=\""../../test_img/26.png\"" width=150 style=\""vertical-align:middle\"">---自我"",""<img src=\""../../test_img/22.png\"" width=150 style=\""vertical-align:middle\"">---生人"",""<img src=\""../../test_img/15.png\"" width=150 style=\""vertical-align:middle\"">---朋友""]","","",""
"","","","","","html-keyboard-response","140","578726","0.0-7.2-0.2-1.62","null","<span style='color:red; font-size: 70px;'>错误! </span>","null","","","","","","","","","","","","","","","","","","","","","","","","","feedback_test","",""
"","","","","","psychophysics","141","579959","0.0-7.2-0.2-0.63","232","","arrowright","","","","","","","","","","","","","key","arrowright","6.943750000000529","768","428","arrowright","true","../../test_img/15.png","生人","prac_matching_task","朋友","[""<img src=\""../../test_img/26.png\"" width=150 style=\""vertical-align:middle\"">---自我"",""<img src=\""../../test_img/22.png\"" width=150 style=\""vertical-align:middle\"">---生人"",""<img src=\""../../test_img/15.png\"" width=150 style=\""vertical-align:middle\"">---朋友""]","","",""
"","","","","","html-keyboard-response","142","580266","0.0-7.2-0.2-1.63","null","<span style='color:GreenYellow; font-size: 70px;'>正确! </span>","null","","","","","","","","","","","","","","","","","","","","","","","","","feedback_test","",""
"","","","","","psychophysics","143","581606","0.0-7.2-0.2-0.64","338","","arrowright","","","","","","","","","","","","","key","arrowright","6.943979057591258","768","428","arrowleft","false","../../test_img/22.png","生人","prac_matching_task","生人","[""<img src=\""../../test_img/26.png\"" width=150 style=\""vertical-align:middle\"">---自我"",""<img src=\""../../test_img/22.png\"" width=150 style=\""vertical-align:middle\"">---生人"",""<img src=\""../../test_img/15.png\"" width=150 style=\""vertical-align:middle\"">---朋友""]","","",""
"","","","","","html-keyboard-response","144","581918","0.0-7.2-0.2-1.64","null","<span style='color:red; font-size: 70px;'>错误! </span>","null","","","","","","","","","","","","","","","","","","","","","","","","","feedback_test","",""
"","","","","","psychophysics","145","583167","0.0-7.2-0.2-0.65","246","","arrowleft","","","","","","","","","","","","","key","arrowleft","6.944134078212291","768","428","arrowright","false","../../test_img/26.png","生人","prac_matching_task","自我","[""<img src=\""../../test_img/26.png\"" width=150 style=\""vertical-align:middle\"">---自我"",""<img src=\""../../test_img/22.png\"" width=150 style=\""vertical-align:middle\"">---生人"",""<img src=\""../../test_img/15.png\"" width=150 style=\""vertical-align:middle\"">---朋友""]","","",""
"","","","","","html-keyboard-response","146","583471","0.0-7.2-0.2-1.65","null","<span style='color:red; font-size: 70px;'>错误! </span>","null","","","","","","","","","","","","","","","","","","","","","","","","","feedback_test","",""
"","","","","","psychophysics","147","584744","0.0-7.2-0.2-0.66","267","","arrowright","","","","","","","","","","","","","key","arrowright","6.9439560439563","768","428","arrowright","true","../../test_img/26.png","朋友","prac_matching_task","自我","[""<img src=\""../../test_img/26.png\"" width=150 style=\""vertical-align:middle\"">---自我"",""<img src=\""../../test_img/22.png\"" width=150 style=\""vertical-align:middle\"">---生人"",""<img src=\""../../test_img/15.png\"" width=150 style=\""vertical-align:middle\"">---朋友""]","","",""
"","","","","","html-keyboard-response","148","585052","0.0-7.2-0.2-1.66","null","<span style='color:GreenYellow; font-size: 70px;'>正确! </span>","null","","","","","","","","","","","","","","","","","","","","","","","","","feedback_test","",""
"","","","","","psychophysics","149","586319","0.0-7.2-0.2-0.67","266","","arrowright","","","","","","","","","","","","","key","arrowright","6.94475138121547","768","428","arrowright","true","../../test_img/22.png","朋友","prac_matching_task","生人","[""<img src=\""../../test_img/26.png\"" width=150 style=\""vertical-align:middle\"">---自我"",""<img src=\""../../test_img/22.png\"" width=150 style=\""vertical-align:middle\"">---生人"",""<img src=\""../../test_img/15.png\"" width=150 style=\""vertical-align:middle\"">---朋友""]","","",""
"","","","","","html-keyboard-response","150","586620","0.0-7.2-0.2-1.67","null","<span style='color:GreenYellow; font-size: 70px;'>正确! </span>","null","","","","","","","","","","","","","","","","","","","","","","","","","feedback_test","",""
"","","","","","psychophysics","151","587887","0.0-7.2-0.2-0.68","264","","arrowright","","","","","","","","","","","","","key","arrowright","6.944505494504983","768","428","arrowleft","false","../../test_img/22.png","生人","prac_matching_task","生人","[""<img src=\""../../test_img/26.png\"" width=150 style=\""vertical-align:middle\"">---自我"",""<img src=\""../../test_img/22.png\"" width=150 style=\""vertical-align:middle\"">---生人"",""<img src=\""../../test_img/15.png\"" width=150 style=\""vertical-align:middle\"">---朋友""]","","",""
"","","","","","html-keyboard-response","152","588203","0.0-7.2-0.2-1.68","null","<span style='color:red; font-size: 70px;'>错误! </span>","null","","","","","","","","","","","","","","","","","","","","","","","","","feedback_test","",""
"","","","","","psychophysics","153","589463","0.0-7.2-0.2-0.69","257","","arrowleft","","","","","","","","","","","","","key","arrowleft","6.944999999999871","768","428","arrowleft","true","../../test_img/26.png","自我","prac_matching_task","自我","[""<img src=\""../../test_img/26.png\"" width=150 style=\""vertical-align:middle\"">---自我"",""<img src=\""../../test_img/22.png\"" width=150 style=\""vertical-align:middle\"">---生人"",""<img src=\""../../test_img/15.png\"" width=150 style=\""vertical-align:middle\"">---朋友""]","","",""
"","","","","","html-keyboard-response","154","589771","0.0-7.2-0.2-1.69","null","<span style='color:GreenYellow; font-size: 70px;'>正确! </span>","null","","","","","","","","","","","","","","","","","","","","","","","","","feedback_test","",""
"","","","","","psychophysics","155","591007","0.0-7.2-0.2-0.70","232","","arrowright","","","","","","","","","","","","","key","arrowright","6.944067796610038","768","428","arrowleft","false","../../test_img/15.png","朋友","prac_matching_task","朋友","[""<img src=\""../../test_img/26.png\"" width=150 style=\""vertical-align:middle\"">---自我"",""<img src=\""../../test_img/22.png\"" width=150 style=\""vertical-align:middle\"">---生人"",""<img src=\""../../test_img/15.png\"" width=150 style=\""vertical-align:middle\"">---朋友""]","","",""
"","","","","","html-keyboard-response","156","591314","0.0-7.2-0.2-1.70","null","<span style='color:red; font-size: 70px;'>错误! </span>","null","","","","","","","","","","","","","","","","","","","","","","","","","feedback_test","",""
"","","","","","psychophysics","157","592558","0.0-7.2-0.2-0.71","242","","arrowleft","","","","","","","","","","","","","key","arrowleft","6.944382022471779","768","428","arrowleft","true","../../test_img/26.png","自我","prac_matching_task","自我","[""<img src=\""../../test_img/26.png\"" width=150 style=\""vertical-align:middle\"">---自我"",""<img src=\""../../test_img/22.png\"" width=150 style=\""vertical-align:middle\"">---生人"",""<img src=\""../../test_img/15.png\"" width=150 style=\""vertical-align:middle\"">---朋友""]","","",""
"","","","","","html-keyboard-response","158","592873","0.0-7.2-0.2-1.71","null","<span style='color:GreenYellow; font-size: 70px;'>正确! </span>","null","","","","","","","","","","","","","","","","","","","","","","","","","feedback_test","",""
"","","","","","html-keyboard-response","159","596624","0.0-7.2-1.2-0.2","3750","<style>.context{color:white; font-size: 35px; line-height:40px}</style>                          <div><p class='context'>您正确回答了50% 的试次。</p ><p class='context'>您的平均反应时为236毫秒。</p >"," ","","","","","","","","","","","","","","","","","","","","","","","","","","",""
"","","","","","instructions","160","607247","0.0-7.2-1.2-1.2","10622","","","","","","","","","","","","","","[{""page_index"":0,""viewing_time"":3518},{""page_index"":1,""viewing_time"":4401},{""page_index"":2,""viewing_time"":1583},{""page_index"":3,""viewing_time"":1120}]","","","","","","","","","","","","","","",""
"","","","","","psychophysics","161","609231","0.0-7.3-0.3-0.72","983","","arrowright","","","","","","","","","","","","","key","arrowright","6.968551236749034","768","428","arrowleft","false","../../test_img/15.png","朋友","prac_matching_task","朋友","[""<img src=\""../../test_img/26.png\"" width=150 style=\""vertical-align:middle\"">---自我"",""<img src=\""../../test_img/22.png\"" width=150 style=\""vertical-align:middle\"">---生人"",""<img src=\""../../test_img/15.png\"" width=150 style=\""vertical-align:middle\"">---朋友""]","","",""
"","","","","","html-keyboard-response","162","609547","0.0-7.3-0.3-1.72","null","<span style='color:red; font-size: 70px;'>错误! </span>","null","","","","","","","","","","","","","","","","","","","","","","","","","feedback_test","",""
"","","","","","psychophysics","163","610951","0.0-7.3-0.3-0.73","398","","arrowleft","","","","","","","","","","","","","key","arrowleft","6.944278606964827","768","428","arrowright","false","../../test_img/22.png","朋友","prac_matching_task","生人","[""<img src=\""../../test_img/26.png\"" width=150 style=\""vertical-align:middle\"">---自我"",""<img src=\""../../test_img/22.png\"" width=150 style=\""vertical-align:middle\"">---生人"",""<img src=\""../../test_img/15.png\"" width=150 style=\""vertical-align:middle\"">---朋友""]","","",""
"","","","","","html-keyboard-response","164","611259","0.0-7.3-0.3-1.73","null","<span style='color:red; font-size: 70px;'>错误! </span>","null","","","","","","","","","","","","","","","","","","","","","","","","","feedback_test","",""
"","","","","","psychophysics","165","612895","0.0-7.3-0.3-0.74","634","","arrowleft","","","","","","","","","","","","","key","arrowleft","6.9739316239317235","768","428","arrowleft","true","../../test_img/26.png","自我","prac_matching_task","自我","[""<img src=\""../../test_img/26.png\"" width=150 style=\""vertical-align:middle\"">---自我"",""<img src=\""../../test_img/22.png\"" width=150 style=\""vertical-align:middle\"">---生人"",""<img src=\""../../test_img/15.png\"" width=150 style=\""vertical-align:middle\"">---朋友""]","","",""
"","","","","","html-keyboard-response","166","613200","0.0-7.3-0.3-1.74","null","<span style='color:GreenYellow; font-size: 70px;'>正确! </span>","null","","","","","","","","","","","","","","","","","","","","","","","","","feedback_test","",""
"","","","","","psychophysics","167","614832","0.0-7.3-0.3-0.75","627","","arrowleft","","","","","","","","","","","","","key","arrowleft","6.944444444444445","768","428","arrowleft","true","../../test_img/15.png","朋友","prac_matching_task","朋友","[""<img src=\""../../test_img/26.png\"" width=150 style=\""vertical-align:middle\"">---自我"",""<img src=\""../../test_img/22.png\"" width=150 style=\""vertical-align:middle\"">---生人"",""<img src=\""../../test_img/15.png\"" width=150 style=\""vertical-align:middle\"">---朋友""]","","",""
"","","","","","html-keyboard-response","168","615142","0.0-7.3-0.3-1.75","null","<span style='color:GreenYellow; font-size: 70px;'>正确! </span>","null","","","","","","","","","","","","","","","","","","","","","","","","","feedback_test","",""
"","","","","","psychophysics","169","616679","0.0-7.3-0.3-0.76","536","","arrowright","","","","","","","","","","","","","key","arrowright","7.007339449541178","768","428","arrowleft","false","../../test_img/22.png","生人","prac_matching_task","生人","[""<img src=\""../../test_img/26.png\"" width=150 style=\""vertical-align:middle\"">---自我"",""<img src=\""../../test_img/22.png\"" width=150 style=\""vertical-align:middle\"">---生人"",""<img src=\""../../test_img/15.png\"" width=150 style=\""vertical-align:middle\"">---朋友""]","","",""
"","","","","","html-keyboard-response","170","616989","0.0-7.3-0.3-1.76","null","<span style='color:red; font-size: 70px;'>错误! </span>","null","","","","","","","","","","","","","","","","","","","","","","","","","feedback_test","",""
"","","","","","psychophysics","171","618391","0.0-7.3-0.3-0.77","401","","arrowleft","","","","","","","","","","","","","key","arrowleft","6.944500000000116","768","428","arrowright","false","../../test_img/22.png","自我","prac_matching_task","生人","[""<img src=\""../../test_img/26.png\"" width=150 style=\""vertical-align:middle\"">---自我"",""<img src=\""../../test_img/22.png\"" width=150 style=\""vertical-align:middle\"">---生人"",""<img src=\""../../test_img/15.png\"" width=150 style=\""vertical-align:middle\"">---朋友""]","","",""
"","","","","","html-keyboard-response","172","618696","0.0-7.3-0.3-1.77","null","<span style='color:red; font-size: 70px;'>错误! </span>","null","","","","","","","","","","","","","","","","","","","","","","","","","feedback_test","",""
"","","","","","psychophysics","173","620119","0.0-7.3-0.3-0.78","420","","arrowright","","","","","","","","","","","","","key","arrowright","6.944117647058709","768","428","arrowright","true","../../test_img/15.png","自我","prac_matching_task","朋友","[""<img src=\""../../test_img/26.png\"" width=150 style=\""vertical-align:middle\"">---自我"",""<img src=\""../../test_img/22.png\"" width=150 style=\""vertical-align:middle\"">---生人"",""<img src=\""../../test_img/15.png\"" width=150 style=\""vertical-align:middle\"">---朋友""]","","",""
"","","","","","html-keyboard-response","174","620421","0.0-7.3-0.3-1.78","null","<span style='color:GreenYellow; font-size: 70px;'>正确! </span>","null","","","","","","","","","","","","","","","","","","","","","","","","","feedback_test","",""
"","","","","","psychophysics","175","621991","0.0-7.3-0.3-0.79","564","","arrowleft","","","","","","","","","","","","","key","arrowleft","6.944888888888785","768","428","arrowleft","true","../../test_img/26.png","自我","prac_matching_task","自我","[""<img src=\""../../test_img/26.png\"" width=150 style=\""vertical-align:middle\"">---自我"",""<img src=\""../../test_img/22.png\"" width=150 style=\""vertical-align:middle\"">---生人"",""<img src=\""../../test_img/15.png\"" width=150 style=\""vertical-align:middle\"">---朋友""]","","",""
"","","","","","html-keyboard-response","176","622306","0.0-7.3-0.3-1.79","null","<span style='color:GreenYellow; font-size: 70px;'>正确! </span>","null","","","","","","","","","","","","","","","","","","","","","","","","","feedback_test","",""
"","","","","","psychophysics","177","624070","0.0-7.3-0.3-0.80","761","","arrowright","","","","","","","","","","","","","key","arrowright","6.943873517786745","768","428","arrowright","true","../../test_img/15.png","生人","prac_matching_task","朋友","[""<img src=\""../../test_img/26.png\"" width=150 style=\""vertical-align:middle\"">---自我"",""<img src=\""../../test_img/22.png\"" width=150 style=\""vertical-align:middle\"">---生人"",""<img src=\""../../test_img/15.png\"" width=150 style=\""vertical-align:middle\"">---朋友""]","","",""
"","","","","","html-keyboard-response","178","624371","0.0-7.3-0.3-1.80","null","<span style='color:GreenYellow; font-size: 70px;'>正确! </span>","null","","","","","","","","","","","","","","","","","","","","","","","","","feedback_test","",""
"","","","","","psychophysics","179","626022","0.0-7.3-0.3-0.81","651","","arrowleft","","","","","","","","","","","","","key","arrowleft","6.944491525423334","768","428","arrowright","false","../../test_img/26.png","朋友","prac_matching_task","自我","[""<img src=\""../../test_img/26.png\"" width=150 style=\""vertical-align:middle\"">---自我"",""<img src=\""../../test_img/22.png\"" width=150 style=\""vertical-align:middle\"">---生人"",""<img src=\""../../test_img/15.png\"" width=150 style=\""vertical-align:middle\"">---朋友""]","","",""
"","","","","","html-keyboard-response","180","626334","0.0-7.3-0.3-1.81","null","<span style='color:red; font-size: 70px;'>错误! </span>","null","","","","","","","","","","","","","","","","","","","","","","","","","feedback_test","",""
"","","","","","psychophysics","181","627967","0.0-7.3-0.3-0.82","630","","arrowright","","","","","","","","","","","","","key","arrowright","6.944017094017194","768","428","arrowleft","false","../../test_img/22.png","生人","prac_matching_task","生人","[""<img src=\""../../test_img/26.png\"" width=150 style=\""vertical-align:middle\"">---自我"",""<img src=\""../../test_img/22.png\"" width=150 style=\""vertical-align:middle\"">---生人"",""<img src=\""../../test_img/15.png\"" width=150 style=\""vertical-align:middle\"">---朋友""]","","",""
"","","","","","html-keyboard-response","182","628280","0.0-7.3-0.3-1.82","null","<span style='color:red; font-size: 70px;'>错误! </span>","null","","","","","","","","","","","","","","","","","","","","","","","","","feedback_test","",""
"","","","","","psychophysics","183","629823","0.0-7.3-0.3-0.83","542","","arrowleft","","","","","","","","","","","","","key","arrowleft","6.939819004524677","768","428","arrowright","false","../../test_img/26.png","生人","prac_matching_task","自我","[""<img src=\""../../test_img/26.png\"" width=150 style=\""vertical-align:middle\"">---自我"",""<img src=\""../../test_img/22.png\"" width=150 style=\""vertical-align:middle\"">---生人"",""<img src=\""../../test_img/15.png\"" width=150 style=\""vertical-align:middle\"">---朋友""]","","",""
"","","","","","html-keyboard-response","184","630127","0.0-7.3-0.3-1.83","null","<span style='color:red; font-size: 70px;'>错误! </span>","null","","","","","","","","","","","","","","","","","","","","","","","","","feedback_test","",""
"","","","","","psychophysics","185","632071","0.0-7.3-0.3-0.84","943","","arrowright","","","","","","","","","","","","","key","arrowright","6.969424460431655","768","428","arrowright","true","../../test_img/15.png","自我","prac_matching_task","朋友","[""<img src=\""../../test_img/26.png\"" width=150 style=\""vertical-align:middle\"">---自我"",""<img src=\""../../test_img/22.png\"" width=150 style=\""vertical-align:middle\"">---生人"",""<img src=\""../../test_img/15.png\"" width=150 style=\""vertical-align:middle\"">---朋友""]","","",""
"","","","","","html-keyboard-response","186","632384","0.0-7.3-0.3-1.84","null","<span style='color:GreenYellow; font-size: 70px;'>正确! </span>","null","","","","","","","","","","","","","","","","","","","","","","","","","feedback_test","",""
"","","","","","psychophysics","187","634040","0.0-7.3-0.3-0.85","655","","arrowright","","","","","","","","","","","","","key","arrowright","6.94008438818585","768","428","arrowright","true","../../test_img/26.png","生人","prac_matching_task","自我","[""<img src=\""../../test_img/26.png\"" width=150 style=\""vertical-align:middle\"">---自我"",""<img src=\""../../test_img/22.png\"" width=150 style=\""vertical-align:middle\"">---生人"",""<img src=\""../../test_img/15.png\"" width=150 style=\""vertical-align:middle\"">---朋友""]","","",""
"","","","","","html-keyboard-response","188","634351","0.0-7.3-0.3-1.85","null","<span style='color:GreenYellow; font-size: 70px;'>正确! </span>","null","","","","","","","","","","","","","","","","","","","","","","","","","feedback_test","",""
"","","","","","psychophysics","189","636416","0.0-7.3-0.3-0.86","1059","","arrowleft","","","","","","","","","","","","","key","arrowleft","6.944594594594909","768","428","arrowright","false","../../test_img/15.png","生人","prac_matching_task","朋友","[""<img src=\""../../test_img/26.png\"" width=150 style=\""vertical-align:middle\"">---自我"",""<img src=\""../../test_img/22.png\"" width=150 style=\""vertical-align:middle\"">---生人"",""<img src=\""../../test_img/15.png\"" width=150 style=\""vertical-align:middle\"">---朋友""]","","",""
"","","","","","html-keyboard-response","190","636723","0.0-7.3-0.3-1.86","null","<span style='color:red; font-size: 70px;'>错误! </span>","null","","","","","","","","","","","","","","","","","","","","","","","","","feedback_test","",""
"","","","","","psychophysics","191","638686","0.0-7.3-0.3-0.87","961","","arrowright","","","","","","","","","","","","","key","arrowright","6.968794326240969","768","428","arrowleft","false","../../test_img/15.png","朋友","prac_matching_task","朋友","[""<img src=\""../../test_img/26.png\"" width=150 style=\""vertical-align:middle\"">---自我"",""<img src=\""../../test_img/22.png\"" width=150 style=\""vertical-align:middle\"">---生人"",""<img src=\""../../test_img/15.png\"" width=150 style=\""vertical-align:middle\"">---朋友""]","","",""
"","","","","","html-keyboard-response","192","638994","0.0-7.3-0.3-1.87","null","<span style='color:red; font-size: 70px;'>错误! </span>","null","","","","","","","","","","","","","","","","","","","","","","","","","feedback_test","",""
"","","","","","psychophysics","193","640984","0.0-7.3-0.3-0.88","987","","arrowright","","","","","","","","","","","","","key","arrowright","6.944055944055944","768","428","arrowright","true","../../test_img/26.png","朋友","prac_matching_task","自我","[""<img src=\""../../test_img/26.png\"" width=150 style=\""vertical-align:middle\"">---自我"",""<img src=\""../../test_img/22.png\"" width=150 style=\""vertical-align:middle\"">---生人"",""<img src=\""../../test_img/15.png\"" width=150 style=\""vertical-align:middle\"">---朋友""]","","",""
"","","","","","html-keyboard-response","194","641292","0.0-7.3-0.3-1.88","null","<span style='color:GreenYellow; font-size: 70px;'>正确! </span>","null","","","","","","","","","","","","","","","","","","","","","","","","","feedback_test","",""
"","","","","","psychophysics","195","643199","0.0-7.3-0.3-0.89","904","","arrowright","","","","","","","","","","","","","key","arrowright","6.9445255474454255","768","428","arrowright","true","../../test_img/22.png","自我","prac_matching_task","生人","[""<img src=\""../../test_img/26.png\"" width=150 style=\""vertical-align:middle\"">---自我"",""<img src=\""../../test_img/22.png\"" width=150 style=\""vertical-align:middle\"">---生人"",""<img src=\""../../test_img/15.png\"" width=150 style=\""vertical-align:middle\"">---朋友""]","","",""
"","","","","","html-keyboard-response","196","643503","0.0-7.3-0.3-1.89","null","<span style='color:GreenYellow; font-size: 70px;'>正确! </span>","null","","","","","","","","","","","","","","","","","","","","","","","","","feedback_test","",""
"","","","","","psychophysics","197","645327","0.0-7.3-0.3-0.90","823","","arrowleft","","","","","","","","","","","","","key","arrowleft","6.944444444444445","768","428","arrowleft","true","../../test_img/26.png","自我","prac_matching_task","自我","[""<img src=\""../../test_img/26.png\"" width=150 style=\""vertical-align:middle\"">---自我"",""<img src=\""../../test_img/22.png\"" width=150 style=\""vertical-align:middle\"">---生人"",""<img src=\""../../test_img/15.png\"" width=150 style=\""vertical-align:middle\"">---朋友""]","","",""
"","","","","","html-keyboard-response","198","645631","0.0-7.3-0.3-1.90","null","<span style='color:GreenYellow; font-size: 70px;'>正确! </span>","null","","","","","","","","","","","","","","","","","","","","","","","","","feedback_test","",""
"","","","","","psychophysics","199","647639","0.0-7.3-0.3-0.91","1004","","arrowright","","","","","","","","","","","","","key","arrowright","6.944444444444445","768","428","arrowleft","false","../../test_img/15.png","朋友","prac_matching_task","朋友","[""<img src=\""../../test_img/26.png\"" width=150 style=\""vertical-align:middle\"">---自我"",""<img src=\""../../test_img/22.png\"" width=150 style=\""vertical-align:middle\"">---生人"",""<img src=\""../../test_img/15.png\"" width=150 style=\""vertical-align:middle\"">---朋友""]","","",""
"","","","","","html-keyboard-response","200","647947","0.0-7.3-0.3-1.91","null","<span style='color:red; font-size: 70px;'>错误! </span>","null","","","","","","","","","","","","","","","","","","","","","","","","","feedback_test","",""
"","","","","","psychophysics","201","650040","0.0-7.3-0.3-0.92","1092","","arrowright","","","","","","","","","","","","","key","arrowright","6.944333333333488","768","428","arrowleft","false","../../test_img/22.png","生人","prac_matching_task","生人","[""<img src=\""../../test_img/26.png\"" width=150 style=\""vertical-align:middle\"">---自我"",""<img src=\""../../test_img/22.png\"" width=150 style=\""vertical-align:middle\"">---生人"",""<img src=\""../../test_img/15.png\"" width=150 style=\""vertical-align:middle\"">---朋友""]","","",""
"","","","","","html-keyboard-response","202","650346","0.0-7.3-0.3-1.92","null","<span style='color:red; font-size: 70px;'>错误! </span>","null","","","","","","","","","","","","","","","","","","","","","","","","","feedback_test","",""
"","","","","","psychophysics","203","652456","0.0-7.3-0.3-0.93","1105","","arrowleft","","","","","","","","","","","","","key","arrowleft","6.990365448504906","768","428","arrowleft","true","../../test_img/22.png","生人","prac_matching_task","生人","[""<img src=\""../../test_img/26.png\"" width=150 style=\""vertical-align:middle\"">---自我"",""<img src=\""../../test_img/22.png\"" width=150 style=\""vertical-align:middle\"">---生人"",""<img src=\""../../test_img/15.png\"" width=150 style=\""vertical-align:middle\"">---朋友""]","","",""
"","","","","","html-keyboard-response","204","652767","0.0-7.3-0.3-1.93","null","<span style='color:GreenYellow; font-size: 70px;'>正确! </span>","null","","","","","","","","","","","","","","","","","","","","","","","","","feedback_test","",""
"","","","","","psychophysics","205","654775","0.0-7.3-0.3-0.94","1002","","arrowright","","","","","","","","","","","","","key","arrowright","6.943750000000161","768","428","arrowright","true","../../test_img/22.png","朋友","prac_matching_task","生人","[""<img src=\""../../test_img/26.png\"" width=150 style=\""vertical-align:middle\"">---自我"",""<img src=\""../../test_img/22.png\"" width=150 style=\""vertical-align:middle\"">---生人"",""<img src=\""../../test_img/15.png\"" width=150 style=\""vertical-align:middle\"">---朋友""]","","",""
"","","","","","html-keyboard-response","206","655087","0.0-7.3-0.3-1.94","null","<span style='color:GreenYellow; font-size: 70px;'>正确! </span>","null","","","","","","","","","","","","","","","","","","","","","","","","","feedback_test","",""
"","","","","","psychophysics","207","656871","0.0-7.3-0.3-0.95","778","","arrowleft","","","","","","","","","","","","","key","arrowleft","6.9450980392156865","768","428","arrowleft","true","../../test_img/26.png","自我","prac_matching_task","自我","[""<img src=\""../../test_img/26.png\"" width=150 style=\""vertical-align:middle\"">---自我"",""<img src=\""../../test_img/22.png\"" width=150 style=\""vertical-align:middle\"">---生人"",""<img src=\""../../test_img/15.png\"" width=150 style=\""vertical-align:middle\"">---朋友""]","","",""
"","","","","","html-keyboard-response","208","657185","0.0-7.3-0.3-1.95","null","<span style='color:GreenYellow; font-size: 70px;'>正确! </span>","null","","","","","","","","","","","","","","","","","","","","","","","","","feedback_test","",""
"","","","","","html-keyboard-response","209","659975","0.0-7.3-1.3-0.3","2789","<style>.context{color:white; font-size: 35px; line-height:40px}</style>                          <div><p class='context'>您正确回答了54% 的试次。</p ><p class='context'>您的平均反应时为785毫秒。</p >"," ","","","","","","","","","","","","","","","","","","","","","","","","","","",""
"","","","","","instructions","210","667383","0.0-7.3-1.3-1.3","7407","","","","","","","","","","","","","","[{""page_index"":0,""viewing_time"":1183},{""page_index"":1,""viewing_time"":4288},{""page_index"":2,""viewing_time"":1137},{""page_index"":3,""viewing_time"":799}]","","","","","","","","","","","","","","",""
"","","","","","psychophysics","211","669815","0.0-7.4-0.4-0.96","1430","","arrowleft","","","","","","","","","","","","","key","arrowleft","6.944126074498567","768","428","arrowleft","true","../../test_img/15.png","朋友","prac_matching_task","朋友","[""<img src=\""../../test_img/26.png\"" width=150 style=\""vertical-align:middle\"">---自我"",""<img src=\""../../test_img/22.png\"" width=150 style=\""vertical-align:middle\"">---生人"",""<img src=\""../../test_img/15.png\"" width=150 style=\""vertical-align:middle\"">---朋友""]","","",""
"","","","","","html-keyboard-response","212","670131","0.0-7.4-0.4-1.96","null","<span style='color:GreenYellow; font-size: 70px;'>正确! </span>","null","","","","","","","","","","","","","","","","","","","","","","","","","feedback_test","",""
"","","","","","psychophysics","213","671863","0.0-7.4-0.4-0.97","729","","arrowright","","","","","","","","","","","","","key","arrowright","6.943951612903601","768","428","arrowright","true","../../test_img/26.png","生人","prac_matching_task","自我","[""<img src=\""../../test_img/26.png\"" width=150 style=\""vertical-align:middle\"">---自我"",""<img src=\""../../test_img/22.png\"" width=150 style=\""vertical-align:middle\"">---生人"",""<img src=\""../../test_img/15.png\"" width=150 style=\""vertical-align:middle\"">---朋友""]","","",""
"","","","","","html-keyboard-response","214","672169","0.0-7.4-0.4-1.97","null","<span style='color:GreenYellow; font-size: 70px;'>正确! </span>","null","","","","","","","","","","","","","","","","","","","","","","","","","feedback_test","",""
"","","","","","psychophysics","215","673831","0.0-7.4-0.4-0.98","661","","arrowleft","","","","","","","","","","","","","key","arrowleft","6.944537815125757","768","428","arrowleft","true","../../test_img/26.png","自我","prac_matching_task","自我","[""<img src=\""../../test_img/26.png\"" width=150 style=\""vertical-align:middle\"">---自我"",""<img src=\""../../test_img/22.png\"" width=150 style=\""vertical-align:middle\"">---生人"",""<img src=\""../../test_img/15.png\"" width=150 style=\""vertical-align:middle\"">---朋友""]","","",""
"","","","","","html-keyboard-response","216","674142","0.0-7.4-0.4-1.98","null","<span style='color:GreenYellow; font-size: 70px;'>正确! </span>","null","","","","","","","","","","","","","","","","","","","","","","","","","feedback_test","",""
"","","","","","psychophysics","217","676623","0.0-7.4-0.4-0.99","1475","","arrowleft","","","","","","","","","","","","","key","arrowleft","6.944382022471779","768","428","arrowright","false","../../test_img/15.png","生人","prac_matching_task","朋友","[""<img src=\""../../test_img/26.png\"" width=150 style=\""vertical-align:middle\"">---自我"",""<img src=\""../../test_img/22.png\"" width=150 style=\""vertical-align:middle\"">---生人"",""<img src=\""../../test_img/15.png\"" width=150 style=\""vertical-align:middle\"">---朋友""]","","",""
"","","","","","html-keyboard-response","218","676927","0.0-7.4-0.4-1.99","null","<span style='color:red; font-size: 70px;'>错误! </span>","null","","","","","","","","","","","","","","","","","","","","","","","","","feedback_test","",""
"","","","","","psychophysics","219","679286","0.0-7.4-0.4-0.100","1354","","arrowleft","","","","","","","","","","","","","key","arrowleft","6.944082840236962","768","428","arrowleft","true","../../test_img/22.png","生人","prac_matching_task","生人","[""<img src=\""../../test_img/26.png\"" width=150 style=\""vertical-align:middle\"">---自我"",""<img src=\""../../test_img/22.png\"" width=150 style=\""vertical-align:middle\"">---生人"",""<img src=\""../../test_img/15.png\"" width=150 style=\""vertical-align:middle\"">---朋友""]","","",""
"","","","","","html-keyboard-response","220","679599","0.0-7.4-0.4-1.100","null","<span style='color:GreenYellow; font-size: 70px;'>正确! </span>","null","","","","","","","","","","","","","","","","","","","","","","","","","feedback_test","",""
"","","","","","psychophysics","221","681255","0.0-7.4-0.4-0.101","655","","arrowleft","","","","","","","","","","","","","key","arrowleft","6.943881856539888","768","428","arrowleft","true","../../test_img/15.png","朋友","prac_matching_task","朋友","[""<img src=\""../../test_img/26.png\"" width=150 style=\""vertical-align:middle\"">---自我"",""<img src=\""../../test_img/22.png\"" width=150 style=\""vertical-align:middle\"">---生人"",""<img src=\""../../test_img/15.png\"" width=150 style=\""vertical-align:middle\"">---朋友""]","","",""
"","","","","","html-keyboard-response","222","681570","0.0-7.4-0.4-1.101","null","<span style='color:GreenYellow; font-size: 70px;'>正确! </span>","null","","","","","","","","","","","","","","","","","","","","","","","","","feedback_test","",""
"","","","","","psychophysics","223","683087","0.0-7.4-0.4-0.102","516","","arrowleft","","","","","","","","","","","","","key","arrowleft","6.944495412844144","768","428","arrowleft","true","../../test_img/26.png","自我","prac_matching_task","自我","[""<img src=\""../../test_img/26.png\"" width=150 style=\""vertical-align:middle\"">---自我"",""<img src=\""../../test_img/22.png\"" width=150 style=\""vertical-align:middle\"">---生人"",""<img src=\""../../test_img/15.png\"" width=150 style=\""vertical-align:middle\"">---朋友""]","","",""
"","","","","","html-keyboard-response","224","683401","0.0-7.4-0.4-1.102","null","<span style='color:GreenYellow; font-size: 70px;'>正确! </span>","null","","","","","","","","","","","","","","","","","","","","","","","","","feedback_test","",""
"","","","","","psychophysics","225","685182","0.0-7.4-0.4-0.103","777","","arrowright","","","","","","","","","","","","","key","arrowright","6.944313725490379","768","428","arrowright","true","../../test_img/26.png","朋友","prac_matching_task","自我","[""<img src=\""../../test_img/26.png\"" width=150 style=\""vertical-align:middle\"">---自我"",""<img src=\""../../test_img/22.png\"" width=150 style=\""vertical-align:middle\"">---生人"",""<img src=\""../../test_img/15.png\"" width=150 style=\""vertical-align:middle\"">---朋友""]","","",""
"","","","","","html-keyboard-response","226","685487","0.0-7.4-0.4-1.103","null","<span style='color:GreenYellow; font-size: 70px;'>正确! </span>","null","","","","","","","","","","","","","","","","","","","","","","","","","feedback_test","",""
"","","","","","psychophysics","227","687559","0.0-7.4-0.4-0.104","1071","","arrowright","","","","","","","","","","","","","key","arrowright","6.944107744107822","768","428","arrowright","true","../../test_img/22.png","自我","prac_matching_task","生人","[""<img src=\""../../test_img/26.png\"" width=150 style=\""vertical-align:middle\"">---自我"",""<img src=\""../../test_img/22.png\"" width=150 style=\""vertical-align:middle\"">---生人"",""<img src=\""../../test_img/15.png\"" width=150 style=\""vertical-align:middle\"">---朋友""]","","",""
"","","","","","html-keyboard-response","228","687861","0.0-7.4-0.4-1.104","null","<span style='color:GreenYellow; font-size: 70px;'>正确! </span>","null","","","","","","","","","","","","","","","","","","","","","","","","","feedback_test","",""
"","","","","","psychophysics","229","689751","0.0-7.4-0.4-0.105","888","","arrowleft","","","","","","","","","","","","","key","arrowleft","6.944280442804514","768","428","arrowright","false","../../test_img/22.png","朋友","prac_matching_task","生人","[""<img src=\""../../test_img/26.png\"" width=150 style=\""vertical-align:middle\"">---自我"",""<img src=\""../../test_img/22.png\"" width=150 style=\""vertical-align:middle\"">---生人"",""<img src=\""../../test_img/15.png\"" width=150 style=\""vertical-align:middle\"">---朋友""]","","",""
"","","","","","html-keyboard-response","230","690066","0.0-7.4-0.4-1.105","null","<span style='color:red; font-size: 70px;'>错误! </span>","null","","","","","","","","","","","","","","","","","","","","","","","","","feedback_test","",""
"","","","","","psychophysics","231","692064","0.0-7.4-0.4-0.106","995","","arrowright","","","","","","","","","","","","","key","arrowright","6.94440559440592","768","428","arrowright","true","../../test_img/15.png","自我","prac_matching_task","朋友","[""<img src=\""../../test_img/26.png\"" width=150 style=\""vertical-align:middle\"">---自我"",""<img src=\""../../test_img/22.png\"" width=150 style=\""vertical-align:middle\"">---生人"",""<img src=\""../../test_img/15.png\"" width=150 style=\""vertical-align:middle\"">---朋友""]","","",""
"","","","","","html-keyboard-response","232","692371","0.0-7.4-0.4-1.106","null","<span style='color:GreenYellow; font-size: 70px;'>正确! </span>","null","","","","","","","","","","","","","","","","","","","","","","","","","feedback_test","",""
"","","","","","psychophysics","233","694343","0.0-7.4-0.4-0.107","966","","arrowleft","","","","","","","","","","","","","key","arrowleft","6.944169611307667","768","428","arrowleft","true","../../test_img/22.png","生人","prac_matching_task","生人","[""<img src=\""../../test_img/26.png\"" width=150 style=\""vertical-align:middle\"">---自我"",""<img src=\""../../test_img/22.png\"" width=150 style=\""vertical-align:middle\"">---生人"",""<img src=\""../../test_img/15.png\"" width=150 style=\""vertical-align:middle\"">---朋友""]","","",""
"","","","","","html-keyboard-response","234","694645","0.0-7.4-0.4-1.107","null","<span style='color:GreenYellow; font-size: 70px;'>正确! </span>","null","","","","","","","","","","","","","","","","","","","","","","","","","feedback_test","",""
"","","","","","psychophysics","235","696759","0.0-7.4-0.4-0.108","1111","","arrowleft","","","","","","","","","","","","","key","arrowleft","6.967218543046281","768","428","arrowleft","true","../../test_img/22.png","生人","prac_matching_task","生人","[""<img src=\""../../test_img/26.png\"" width=150 style=\""vertical-align:middle\"">---自我"",""<img src=\""../../test_img/22.png\"" width=150 style=\""vertical-align:middle\"">---生人"",""<img src=\""../../test_img/15.png\"" width=150 style=\""vertical-align:middle\"">---朋友""]","","",""
"","","","","","html-keyboard-response","236","697062","0.0-7.4-0.4-1.108","null","<span style='color:GreenYellow; font-size: 70px;'>正确! </span>","null","","","","","","","","","","","","","","","","","","","","","","","","","feedback_test","",""
"","","","","","psychophysics","237","698879","0.0-7.4-0.4-0.109","815","","arrowright","","","","","","","","","","","","","key","arrowright","6.944827586206808","768","428","arrowright","true","../../test_img/26.png","生人","prac_matching_task","自我","[""<img src=\""../../test_img/26.png\"" width=150 style=\""vertical-align:middle\"">---自我"",""<img src=\""../../test_img/22.png\"" width=150 style=\""vertical-align:middle\"">---生人"",""<img src=\""../../test_img/15.png\"" width=150 style=\""vertical-align:middle\"">---朋友""]","","",""
"","","","","","html-keyboard-response","238","699180","0.0-7.4-0.4-1.109","null","<span style='color:GreenYellow; font-size: 70px;'>正确! </span>","null","","","","","","","","","","","","","","","","","","","","","","","","","feedback_test","",""
"","","","","","psychophysics","239","701103","0.0-7.4-0.4-0.110","920","","arrowright","","","","","","","","","","","","","key","arrowright","7.020879120879377","768","428","arrowright","true","../../test_img/22.png","自我","prac_matching_task","生人","[""<img src=\""../../test_img/26.png\"" width=150 style=\""vertical-align:middle\"">---自我"",""<img src=\""../../test_img/22.png\"" width=150 style=\""vertical-align:middle\"">---生人"",""<img src=\""../../test_img/15.png\"" width=150 style=\""vertical-align:middle\"">---朋友""]","","",""
"","","","","","html-keyboard-response","240","701418","0.0-7.4-0.4-1.110","null","<span style='color:GreenYellow; font-size: 70px;'>正确! </span>","null","","","","","","","","","","","","","","","","","","","","","","","","","feedback_test","",""
"","","","","","psychophysics","241","703223","0.0-7.4-0.4-0.111","804","","arrowleft","","","","","","","","","","","","","key","arrowleft","6.944573643411124","768","428","arrowleft","true","../../test_img/15.png","朋友","prac_matching_task","朋友","[""<img src=\""../../test_img/26.png\"" width=150 style=\""vertical-align:middle\"">---自我"",""<img src=\""../../test_img/22.png\"" width=150 style=\""vertical-align:middle\"">---生人"",""<img src=\""../../test_img/15.png\"" width=150 style=\""vertical-align:middle\"">---朋友""]","","",""
"","","","","","html-keyboard-response","242","703533","0.0-7.4-0.4-1.111","null","<span style='color:GreenYellow; font-size: 70px;'>正确! </span>","null","","","","","","","","","","","","","","","","","","","","","","","","","feedback_test","",""
"","","","","","psychophysics","243","705471","0.0-7.4-0.4-0.112","935","","arrowright","","","","","","","","","","","","","key","arrowright","6.944244604316546","768","428","arrowright","true","../../test_img/15.png","自我","prac_matching_task","朋友","[""<img src=\""../../test_img/26.png\"" width=150 style=\""vertical-align:middle\"">---自我"",""<img src=\""../../test_img/22.png\"" width=150 style=\""vertical-align:middle\"">---生人"",""<img src=\""../../test_img/15.png\"" width=150 style=\""vertical-align:middle\"">---朋友""]","","",""
"","","","","","html-keyboard-response","244","705779","0.0-7.4-0.4-1.112","null","<span style='color:GreenYellow; font-size: 70px;'>正确! </span>","null","","","","","","","","","","","","","","","","","","","","","","","","","feedback_test","",""
"","","","","","psychophysics","245","708048","0.0-7.4-0.4-0.113","1268","","arrowright","","","","","","","","","","","","","key","arrowright","6.944000000000143","768","428","arrowright","true","../../test_img/15.png","生人","prac_matching_task","朋友","[""<img src=\""../../test_img/26.png\"" width=150 style=\""vertical-align:middle\"">---自我"",""<img src=\""../../test_img/22.png\"" width=150 style=\""vertical-align:middle\"">---生人"",""<img src=\""../../test_img/15.png\"" width=150 style=\""vertical-align:middle\"">---朋友""]","","",""
"","","","","","html-keyboard-response","246","708360","0.0-7.4-0.4-1.113","null","<span style='color:GreenYellow; font-size: 70px;'>正确! </span>","null","","","","","","","","","","","","","","","","","","","","","","","","","feedback_test","",""
"","","","","","psychophysics","247","710543","0.0-7.4-0.4-0.114","1180","","arrowright","","","","","","","","","","","","","key","arrowright","6.989389067523966","768","428","arrowright","true","../../test_img/26.png","朋友","prac_matching_task","自我","[""<img src=\""../../test_img/26.png\"" width=150 style=\""vertical-align:middle\"">---自我"",""<img src=\""../../test_img/22.png\"" width=150 style=\""vertical-align:middle\"">---生人"",""<img src=\""../../test_img/15.png\"" width=150 style=\""vertical-align:middle\"">---朋友""]","","",""
"","","","","","html-keyboard-response","248","710846","0.0-7.4-0.4-1.114","null","<span style='color:GreenYellow; font-size: 70px;'>正确! </span>","null","","","","","","","","","","","","","","","","","","","","","","","","","feedback_test","",""
"","","","","","psychophysics","249","712702","0.0-7.4-0.4-0.115","854","","arrowleft","","","","","","","","","","","","","key","arrowleft","6.944360902255464","768","428","arrowleft","true","../../test_img/26.png","自我","prac_matching_task","自我","[""<img src=\""../../test_img/26.png\"" width=150 style=\""vertical-align:middle\"">---自我"",""<img src=\""../../test_img/22.png\"" width=150 style=\""vertical-align:middle\"">---生人"",""<img src=\""../../test_img/15.png\"" width=150 style=\""vertical-align:middle\"">---朋友""]","","",""
"","","","","","html-keyboard-response","250","713015","0.0-7.4-0.4-1.115","null","<span style='color:GreenYellow; font-size: 70px;'>正确! </span>","null","","","","","","","","","","","","","","","","","","","","","","","","","feedback_test","",""
"","","","","","psychophysics","251","714646","0.0-7.4-0.4-0.116","630","","arrowleft","","","","","","","","","","","","","key","arrowleft","6.944206008583691","768","428","arrowleft","true","../../test_img/26.png","自我","prac_matching_task","自我","[""<img src=\""../../test_img/26.png\"" width=150 style=\""vertical-align:middle\"">---自我"",""<img src=\""../../test_img/22.png\"" width=150 style=\""vertical-align:middle\"">---生人"",""<img src=\""../../test_img/15.png\"" width=150 style=\""vertical-align:middle\"">---朋友""]","","",""
"","","","","","html-keyboard-response","252","714952","0.0-7.4-0.4-1.116","null","<span style='color:GreenYellow; font-size: 70px;'>正确! </span>","null","","","","","","","","","","","","","","","","","","","","","","","","","feedback_test","",""
"","","","","","psychophysics","253","716887","0.0-7.4-0.4-0.117","934","","arrowleft","","","","","","","","","","","","","key","arrowleft","6.944043321299639","768","428","arrowleft","true","../../test_img/15.png","朋友","prac_matching_task","朋友","[""<img src=\""../../test_img/26.png\"" width=150 style=\""vertical-align:middle\"">---自我"",""<img src=\""../../test_img/22.png\"" width=150 style=\""vertical-align:middle\"">---生人"",""<img src=\""../../test_img/15.png\"" width=150 style=\""vertical-align:middle\"">---朋友""]","","",""
"","","","","","html-keyboard-response","254","717190","0.0-7.4-0.4-1.117","null","<span style='color:GreenYellow; font-size: 70px;'>正确! </span>","null","","","","","","","","","","","","","","","","","","","","","","","","","feedback_test","",""
"","","","","","psychophysics","255","719046","0.0-7.4-0.4-0.118","851","","arrowright","","","","","","","","","","","","","key","arrowright","6.944360902255902","768","428","arrowright","true","../../test_img/22.png","朋友","prac_matching_task","生人","[""<img src=\""../../test_img/26.png\"" width=150 style=\""vertical-align:middle\"">---自我"",""<img src=\""../../test_img/22.png\"" width=150 style=\""vertical-align:middle\"">---生人"",""<img src=\""../../test_img/15.png\"" width=150 style=\""vertical-align:middle\"">---朋友""]","","",""
"","","","","","html-keyboard-response","256","719356","0.0-7.4-0.4-1.118","null","<span style='color:GreenYellow; font-size: 70px;'>正确! </span>","null","","","","","","","","","","","","","","","","","","","","","","","","","feedback_test","",""
"","","","","","psychophysics","257","721455","0.0-7.4-0.4-0.119","1093","","arrowleft","","","","","","","","","","","","","key","arrowleft","6.9445182724254035","768","428","arrowleft","true","../../test_img/22.png","生人","prac_matching_task","生人","[""<img src=\""../../test_img/26.png\"" width=150 style=\""vertical-align:middle\"">---自我"",""<img src=\""../../test_img/22.png\"" width=150 style=\""vertical-align:middle\"">---生人"",""<img src=\""../../test_img/15.png\"" width=150 style=\""vertical-align:middle\"">---朋友""]","","",""
"","","","","","html-keyboard-response","258","721764","0.0-7.4-0.4-1.119","null","<span style='color:GreenYellow; font-size: 70px;'>正确! </span>","null","","","","","","","","","","","","","","","","","","","","","","","","","feedback_test","",""
"","","","","","html-keyboard-response","259","730087","0.0-8.0","8322","<style>.context{color:white; font-size: 35px; line-height:40px}</style>                          <div><p class='context'>您正确回答了92% 的试次。</p ><p class='context'>您的平均反应时为934毫秒。</p ><p class='context'>恭喜您完成练习。按任意键进入知觉匹配任务正式实验。</p ><p style = 'color:lightgreen; font-size: 35px;' >正式实验与练习要求相同，请您尽可能又快又准地进行按键反应</p><p class='footer' style='font-size: 22px; line-height:40px;'>请将您右手的<span style='color: lightgreen;'>食指与无名指</span>放在电脑键盘的相应键位上进行按键。</p >"," ","","","","","","","","","","","","","","","","","","","","","","","","","","",""
"","","","","","psychophysics","260","732279","0.0-9.0-0.0-0.0-0.0-0.0","1188","","arrowleft","","","","","","","","","","","","","key","arrowleft","6.944444444444445","768","428","arrowright","false","../../test_img/22.png","自我","matching_task","生人","[""<img src=\""../../test_img/26.png\"" width=150 style=\""vertical-align:middle\"">---自我"",""<img src=\""../../test_img/22.png\"" width=150 style=\""vertical-align:middle\"">---生人"",""<img src=\""../../test_img/15.png\"" width=150 style=\""vertical-align:middle\"">---朋友""]","","",""
