"success","timeout","failed_images","failed_audio","failed_video","trial_type","trial_index","time_elapsed","internal_node_id","rt","stimulus","response","value","item_width_mm","item_height_mm","item_width_px","px2mm","view_dist_mm","item_width_deg","px2deg","scale_factor","win_width_deg","win_height_deg","view_history","response_type","key_press","avg_frame_time","center_x","center_y","correct_response","correct","Image","word","condition","shape","association","screen_id","LeftLable","RightLable"
"true","false","[]","[]","[]","preload","0","398","0.0-0.0","","","","","","","","","","","","","","","","","","","","","","","","","","","","","",""
"","","","","","html-keyboard-response","1","28889","0.0-1.0","28489","
     <p>您好，欢迎参加本次实验。</p>
     <p>为充分保障您的权利，请确保您已经知晓并同意《参与实验同意书》以及《数据公开知情同意书》。</p>
     <p>如果您未见过上述内容，请咨询实验员。</p>
     <p>如果您选择继续实验，则表示您已经清楚两份知情同意书的内容并同意。</p>
     <p> <div style = ""color: green""><按任意键至下页></div> </p>
     ","enter","","","","","","","","","","","","","","","","","","","","","","","","","","",""
"","","","","","html-keyboard-response","2","29921","0.0-2.0","1031","
     <p>本实验首先需要您填写一些基本个人信息。</p>
     <p> <div style = ""color: green""><按任意键至下页></div></p>
     ","enter","","","","","","","","","","","","","","","","","","","","","","","","","","",""
"","","","","","call-function","3","29922","0.0-3.0-0.0","","","","","","","","","","","","","","","","","","","","","","","","","","","","","",""
"","","","","","survey-html-form","4","34433","0.0-3.0-1.0","4509","","{""Q0"":""24""}","","","","","","","","","","","","","","","","","","","","","","","","","","",""
"","","","","","html-button-response","5","35588","0.0-3.0-2.0","1154","<p style = 'color : white'>您的性别</p>","1","","","","","","","","","","","","","","","","","","","","","","","","","","",""
"","","","","","survey-html-form","6","39655","0.0-3.0-3.0","4065","","{""Q0"":""2001""}","","","","","","","","","","","","","","","","","","","","","","","","","","",""
"","","","","","survey-html-form","7","43703","0.0-3.0-4.0","4047","","{""Q0"":""6""}","","","","","","","","","","","","","","","","","","","","","","","","","","",""
"","","","","","virtual-chinrest","8","168811","0.0-4.0","125106","","","","85.6","53.98","451.5758095654231","5.2774522322706074","541.92","9.031516191308462","50","0.9190040547109419","33.98","18.82","","","","","","","","","","","","","","","",""
"true","","","","","fullscreen","9","171225","0.0-5.0","","","","","","","","","","","","","","","","","","","","","","","","","","","","","",""
"","","","","","instructions","10","210256","0.0-6.0","39030","","","","","","","","","","","","","","[{""page_index"":0,""viewing_time"":15845},{""page_index"":1,""viewing_time"":9975},{""page_index"":2,""viewing_time"":7947},{""page_index"":3,""viewing_time"":2553},{""page_index"":4,""viewing_time"":2710}]","","","","","","","","","","","","","","",""
"","","","","","psychophysics","11","212766","0.0-7.0-0.0-0.0","null","","null","","","","","","","","","","","","","key","null","8.334333333333392","853.3333333333334","529.3333333333334","arrowright","false","../../test_img/22.png","生人","prac_matching_task","朋友","[""<img src=\""../../test_img/26.png\"" width=150 style=\""vertical-align:middle\"">---生人"",""<img src=\""../../test_img/22.png\"" width=150 style=\""vertical-align:middle\"">---朋友"",""<img src=\""../../test_img/15.png\"" width=150 style=\""vertical-align:middle\"">---自我""]","","",""
"","","","","","html-keyboard-response","12","213072","0.0-7.0-0.0-1.0","null","<span class='add_' style='color:yellow; font-size: 70px;'> 太慢! </span>","null","","","","","","","","","","","","","","","","","","","","","","","","","feedback_test","",""
"","","","","","psychophysics","13","214562","0.0-7.0-0.0-0.1","488","","arrowleft","","","","","","","","","","","","","key","arrowleft","8.330550561797853","853.3333333333334","529.3333333333334","arrowright","false","../../test_img/26.png","朋友","prac_matching_task","生人","[""<img src=\""../../test_img/26.png\"" width=150 style=\""vertical-align:middle\"">---生人"",""<img src=\""../../test_img/22.png\"" width=150 style=\""vertical-align:middle\"">---朋友"",""<img src=\""../../test_img/15.png\"" width=150 style=\""vertical-align:middle\"">---自我""]","","",""
"","","","","","html-keyboard-response","14","214869","0.0-7.0-0.0-1.1","null","<span style='color:red; font-size: 70px;'>错误! </span>","null","","","","","","","","","","","","","","","","","","","","","","","","","feedback_test","",""
"","","","","","psychophysics","15","216518","0.0-7.0-0.0-0.2","644","","arrowright","","","","","","","","","","","","","key","arrowright","8.333502538070977","853.3333333333334","529.3333333333334","arrowright","true","../../test_img/15.png","生人","prac_matching_task","自我","[""<img src=\""../../test_img/26.png\"" width=150 style=\""vertical-align:middle\"">---生人"",""<img src=\""../../test_img/22.png\"" width=150 style=\""vertical-align:middle\"">---朋友"",""<img src=\""../../test_img/15.png\"" width=150 style=\""vertical-align:middle\"">---自我""]","","",""
"","","","","","html-keyboard-response","16","216831","0.0-7.0-0.0-1.2","null","<span style='color:GreenYellow; font-size: 70px;'>正确! </span>","null","","","","","","","","","","","","","","","","","","","","","","","","","feedback_test","",""
"","","","","","psychophysics","17","218395","0.0-7.0-0.0-0.3","563","","arrowright","","","","","","","","","","","","","key","arrowright","8.329569892473057","853.3333333333334","529.3333333333334","arrowleft","false","../../test_img/26.png","生人","prac_matching_task","生人","[""<img src=\""../../test_img/26.png\"" width=150 style=\""vertical-align:middle\"">---生人"",""<img src=\""../../test_img/22.png\"" width=150 style=\""vertical-align:middle\"">---朋友"",""<img src=\""../../test_img/15.png\"" width=150 style=\""vertical-align:middle\"">---自我""]","","",""
"","","","","","html-keyboard-response","18","218707","0.0-7.0-0.0-1.3","null","<span style='color:red; font-size: 70px;'>错误! </span>","null","","","","","","","","","","","","","","","","","","","","","","","","","feedback_test","",""
"","","","","","psychophysics","19","220334","0.0-7.0-0.0-0.4","625","","arrowright","","","","","","","","","","","","","key","arrowright","8.333505154639235","853.3333333333334","529.3333333333334","arrowright","true","../../test_img/15.png","朋友","prac_matching_task","自我","[""<img src=\""../../test_img/26.png\"" width=150 style=\""vertical-align:middle\"">---生人"",""<img src=\""../../test_img/22.png\"" width=150 style=\""vertical-align:middle\"">---朋友"",""<img src=\""../../test_img/15.png\"" width=150 style=\""vertical-align:middle\"">---自我""]","","",""
"","","","","","html-keyboard-response","20","220650","0.0-7.0-0.0-1.4","null","<span style='color:GreenYellow; font-size: 70px;'>正确! </span>","null","","","","","","","","","","","","","","","","","","","","","","","","","feedback_test","",""
"","","","","","psychophysics","21","222408","0.0-7.0-0.0-0.5","751","","arrowleft","","","","","","","","","","","","","key","arrowleft","8.33380952380955","853.3333333333334","529.3333333333334","arrowleft","true","../../test_img/26.png","生人","prac_matching_task","生人","[""<img src=\""../../test_img/26.png\"" width=150 style=\""vertical-align:middle\"">---生人"",""<img src=\""../../test_img/22.png\"" width=150 style=\""vertical-align:middle\"">---朋友"",""<img src=\""../../test_img/15.png\"" width=150 style=\""vertical-align:middle\"">---自我""]","","",""
"","","","","","html-keyboard-response","22","222710","0.0-7.0-0.0-1.5","null","<span style='color:GreenYellow; font-size: 70px;'>正确! </span>","null","","","","","","","","","","","","","","","","","","","","","","","","","feedback_test","",""
"","","","","","psychophysics","23","224462","0.0-7.0-0.0-0.6","750","","arrowleft","","","","","","","","","","","","","key","arrowleft","8.334449760765523","853.3333333333334","529.3333333333334","arrowleft","true","../../test_img/22.png","朋友","prac_matching_task","朋友","[""<img src=\""../../test_img/26.png\"" width=150 style=\""vertical-align:middle\"">---生人"",""<img src=\""../../test_img/22.png\"" width=150 style=\""vertical-align:middle\"">---朋友"",""<img src=\""../../test_img/15.png\"" width=150 style=\""vertical-align:middle\"">---自我""]","","",""
"","","","","","html-keyboard-response","24","224772","0.0-7.0-0.0-1.6","null","<span style='color:GreenYellow; font-size: 70px;'>正确! </span>","null","","","","","","","","","","","","","","","","","","","","","","","","","feedback_test","",""
"","","","","","psychophysics","25","226431","0.0-7.0-0.0-0.7","658","","arrowright","","","","","","","","","","","","","key","arrowright","8.3248730964467","853.3333333333334","529.3333333333334","arrowleft","false","../../test_img/15.png","自我","prac_matching_task","自我","[""<img src=\""../../test_img/26.png\"" width=150 style=\""vertical-align:middle\"">---生人"",""<img src=\""../../test_img/22.png\"" width=150 style=\""vertical-align:middle\"">---朋友"",""<img src=\""../../test_img/15.png\"" width=150 style=\""vertical-align:middle\"">---自我""]","","",""
"","","","","","html-keyboard-response","26","226744","0.0-7.0-0.0-1.7","null","<span style='color:red; font-size: 70px;'>错误! </span>","null","","","","","","","","","","","","","","","","","","","","","","","","","feedback_test","",""
"","","","","","psychophysics","27","228647","0.0-7.0-0.0-0.8","899","","arrowleft","","","","","","","","","","","","","key","arrowleft","8.333480176211506","853.3333333333334","529.3333333333334","arrowleft","true","../../test_img/15.png","自我","prac_matching_task","自我","[""<img src=\""../../test_img/26.png\"" width=150 style=\""vertical-align:middle\"">---生人"",""<img src=\""../../test_img/22.png\"" width=150 style=\""vertical-align:middle\"">---朋友"",""<img src=\""../../test_img/15.png\"" width=150 style=\""vertical-align:middle\"">---自我""]","","",""
"","","","","","html-keyboard-response","28","228962","0.0-7.0-0.0-1.8","null","<span style='color:GreenYellow; font-size: 70px;'>正确! </span>","null","","","","","","","","","","","","","","","","","","","","","","","","","feedback_test","",""
"","","","","","psychophysics","29","230582","0.0-7.0-0.0-0.9","617","","arrowright","","","","","","","","","","","","","key","arrowright","8.331649484536214","853.3333333333334","529.3333333333334","arrowright","true","../../test_img/22.png","自我","prac_matching_task","朋友","[""<img src=\""../../test_img/26.png\"" width=150 style=\""vertical-align:middle\"">---生人"",""<img src=\""../../test_img/22.png\"" width=150 style=\""vertical-align:middle\"">---朋友"",""<img src=\""../../test_img/15.png\"" width=150 style=\""vertical-align:middle\"">---自我""]","","",""
"","","","","","html-keyboard-response","30","230884","0.0-7.0-0.0-1.9","null","<span style='color:GreenYellow; font-size: 70px;'>正确! </span>","null","","","","","","","","","","","","","","","","","","","","","","","","","feedback_test","",""
"","","","","","psychophysics","31","232579","0.0-7.0-0.0-0.10","692","","arrowright","","","","","","","","","","","","","key","arrowright","8.333168316831626","853.3333333333334","529.3333333333334","arrowright","true","../../test_img/26.png","自我","prac_matching_task","生人","[""<img src=\""../../test_img/26.png\"" width=150 style=\""vertical-align:middle\"">---生人"",""<img src=\""../../test_img/22.png\"" width=150 style=\""vertical-align:middle\"">---朋友"",""<img src=\""../../test_img/15.png\"" width=150 style=\""vertical-align:middle\"">---自我""]","","",""
"","","","","","html-keyboard-response","32","232885","0.0-7.0-0.0-1.10","null","<span style='color:GreenYellow; font-size: 70px;'>正确! </span>","null","","","","","","","","","","","","","","","","","","","","","","","","","feedback_test","",""
"","","","","","psychophysics","33","234522","0.0-7.0-0.0-0.11","634","","arrowleft","","","","","","","","","","","","","key","arrowleft","8.332820512820483","853.3333333333334","529.3333333333334","arrowleft","true","../../test_img/22.png","朋友","prac_matching_task","朋友","[""<img src=\""../../test_img/26.png\"" width=150 style=\""vertical-align:middle\"">---生人"",""<img src=\""../../test_img/22.png\"" width=150 style=\""vertical-align:middle\"">---朋友"",""<img src=\""../../test_img/15.png\"" width=150 style=\""vertical-align:middle\"">---自我""]","","",""
"","","","","","html-keyboard-response","34","234826","0.0-7.0-0.0-1.11","null","<span style='color:GreenYellow; font-size: 70px;'>正确! </span>","null","","","","","","","","","","","","","","","","","","","","","","","","","feedback_test","",""
"","","","","","psychophysics","35","236504","0.0-7.0-0.0-0.12","672","","arrowright","","","","","","","","","","","","","key","arrowright","8.333500000000058","853.3333333333334","529.3333333333334","arrowright","true","../../test_img/26.png","自我","prac_matching_task","生人","[""<img src=\""../../test_img/26.png\"" width=150 style=\""vertical-align:middle\"">---生人"",""<img src=\""../../test_img/22.png\"" width=150 style=\""vertical-align:middle\"">---朋友"",""<img src=\""../../test_img/15.png\"" width=150 style=\""vertical-align:middle\"">---自我""]","","",""
"","","","","","html-keyboard-response","36","236811","0.0-7.0-0.0-1.12","null","<span style='color:GreenYellow; font-size: 70px;'>正确! </span>","null","","","","","","","","","","","","","","","","","","","","","","","","","feedback_test","",""
"","","","","","psychophysics","37","238462","0.0-7.0-0.0-0.13","646","","arrowright","","","","","","","","","","","","","key","arrowright","8.332994923857898","853.3333333333334","529.3333333333334","arrowleft","false","../../test_img/15.png","自我","prac_matching_task","自我","[""<img src=\""../../test_img/26.png\"" width=150 style=\""vertical-align:middle\"">---生人"",""<img src=\""../../test_img/22.png\"" width=150 style=\""vertical-align:middle\"">---朋友"",""<img src=\""../../test_img/15.png\"" width=150 style=\""vertical-align:middle\"">---自我""]","","",""
"","","","","","html-keyboard-response","38","238773","0.0-7.0-0.0-1.13","null","<span style='color:red; font-size: 70px;'>错误! </span>","null","","","","","","","","","","","","","","","","","","","","","","","","","feedback_test","",""
"","","","","","psychophysics","39","240322","0.0-7.0-0.0-0.14","548","","arrowright","","","","","","","","","","","","","key","arrowright","8.333695652173882","853.3333333333334","529.3333333333334","arrowleft","false","../../test_img/26.png","生人","prac_matching_task","生人","[""<img src=\""../../test_img/26.png\"" width=150 style=\""vertical-align:middle\"">---生人"",""<img src=\""../../test_img/22.png\"" width=150 style=\""vertical-align:middle\"">---朋友"",""<img src=\""../../test_img/15.png\"" width=150 style=\""vertical-align:middle\"">---自我""]","","",""
"","","","","","html-keyboard-response","40","240629","0.0-7.0-0.0-1.14","null","<span style='color:red; font-size: 70px;'>错误! </span>","null","","","","","","","","","","","","","","","","","","","","","","","","","feedback_test","",""
"","","","","","psychophysics","41","242185","0.0-7.0-0.0-0.15","553","","arrowleft","","","","","","","","","","","","","key","arrowleft","8.334978494623561","853.3333333333334","529.3333333333334","arrowright","false","../../test_img/22.png","生人","prac_matching_task","朋友","[""<img src=\""../../test_img/26.png\"" width=150 style=\""vertical-align:middle\"">---生人"",""<img src=\""../../test_img/22.png\"" width=150 style=\""vertical-align:middle\"">---朋友"",""<img src=\""../../test_img/15.png\"" width=150 style=\""vertical-align:middle\"">---自我""]","","",""
"","","","","","html-keyboard-response","42","242489","0.0-7.0-0.0-1.15","null","<span style='color:red; font-size: 70px;'>错误! </span>","null","","","","","","","","","","","","","","","","","","","","","","","","","feedback_test","",""
"","","","","","psychophysics","43","244089","0.0-7.0-0.0-0.16","598","","arrowright","","","","","","","","","","","","","key","arrowright","8.326315789473684","853.3333333333334","529.3333333333334","arrowright","true","../../test_img/15.png","生人","prac_matching_task","自我","[""<img src=\""../../test_img/26.png\"" width=150 style=\""vertical-align:middle\"">---生人"",""<img src=\""../../test_img/22.png\"" width=150 style=\""vertical-align:middle\"">---朋友"",""<img src=\""../../test_img/15.png\"" width=150 style=\""vertical-align:middle\"">---自我""]","","",""
"","","","","","html-keyboard-response","44","244400","0.0-7.0-0.0-1.16","null","<span style='color:GreenYellow; font-size: 70px;'>正确! </span>","null","","","","","","","","","","","","","","","","","","","","","","","","","feedback_test","",""
"","","","","","psychophysics","45","245974","0.0-7.0-0.0-0.17","573","","arrowright","","","","","","","","","","","","","key","arrowright","8.332978723404286","853.3333333333334","529.3333333333334","arrowleft","false","../../test_img/26.png","生人","prac_matching_task","生人","[""<img src=\""../../test_img/26.png\"" width=150 style=\""vertical-align:middle\"">---生人"",""<img src=\""../../test_img/22.png\"" width=150 style=\""vertical-align:middle\"">---朋友"",""<img src=\""../../test_img/15.png\"" width=150 style=\""vertical-align:middle\"">---自我""]","","",""
"","","","","","html-keyboard-response","46","246286","0.0-7.0-0.0-1.17","null","<span style='color:red; font-size: 70px;'>错误! </span>","null","","","","","","","","","","","","","","","","","","","","","","","","","feedback_test","",""
"","","","","","psychophysics","47","247811","0.0-7.0-0.0-0.18","521","","arrowleft","","","","","","","","","","","","","key","arrowleft","8.333516483516547","853.3333333333334","529.3333333333334","arrowleft","true","../../test_img/22.png","朋友","prac_matching_task","朋友","[""<img src=\""../../test_img/26.png\"" width=150 style=\""vertical-align:middle\"">---生人"",""<img src=\""../../test_img/22.png\"" width=150 style=\""vertical-align:middle\"">---朋友"",""<img src=\""../../test_img/15.png\"" width=150 style=\""vertical-align:middle\"">---自我""]","","",""
"","","","","","html-keyboard-response","48","248115","0.0-7.0-0.0-1.18","null","<span style='color:GreenYellow; font-size: 70px;'>正确! </span>","null","","","","","","","","","","","","","","","","","","","","","","","","","feedback_test","",""
"","","","","","psychophysics","49","249611","0.0-7.0-0.0-0.19","495","","arrowright","","","","","","","","","","","","","key","arrowright","8.33370786516867","853.3333333333334","529.3333333333334","arrowright","true","../../test_img/22.png","自我","prac_matching_task","朋友","[""<img src=\""../../test_img/26.png\"" width=150 style=\""vertical-align:middle\"">---生人"",""<img src=\""../../test_img/22.png\"" width=150 style=\""vertical-align:middle\"">---朋友"",""<img src=\""../../test_img/15.png\"" width=150 style=\""vertical-align:middle\"">---自我""]","","",""
"","","","","","html-keyboard-response","50","249921","0.0-7.0-0.0-1.19","null","<span style='color:GreenYellow; font-size: 70px;'>正确! </span>","null","","","","","","","","","","","","","","","","","","","","","","","","","feedback_test","",""
"","","","","","psychophysics","51","251475","0.0-7.0-0.0-0.20","552","","arrowright","","","","","","","","","","","","","key","arrowright","8.33124731182808","853.3333333333334","529.3333333333334","arrowleft","false","../../test_img/15.png","自我","prac_matching_task","自我","[""<img src=\""../../test_img/26.png\"" width=150 style=\""vertical-align:middle\"">---生人"",""<img src=\""../../test_img/22.png\"" width=150 style=\""vertical-align:middle\"">---朋友"",""<img src=\""../../test_img/15.png\"" width=150 style=\""vertical-align:middle\"">---自我""]","","",""
"","","","","","html-keyboard-response","52","251791","0.0-7.0-0.0-1.20","null","<span style='color:red; font-size: 70px;'>错误! </span>","null","","","","","","","","","","","","","","","","","","","","","","","","","feedback_test","",""
"","","","","","psychophysics","53","253373","0.0-7.0-0.0-0.21","580","","arrowleft","","","","","","","","","","","","","key","arrowleft","8.332804232804202","853.3333333333334","529.3333333333334","arrowleft","true","../../test_img/22.png","朋友","prac_matching_task","朋友","[""<img src=\""../../test_img/26.png\"" width=150 style=\""vertical-align:middle\"">---生人"",""<img src=\""../../test_img/22.png\"" width=150 style=\""vertical-align:middle\"">---朋友"",""<img src=\""../../test_img/15.png\"" width=150 style=\""vertical-align:middle\"">---自我""]","","",""
"","","","","","html-keyboard-response","54","253682","0.0-7.0-0.0-1.21","null","<span style='color:GreenYellow; font-size: 70px;'>正确! </span>","null","","","","","","","","","","","","","","","","","","","","","","","","","feedback_test","",""
"","","","","","psychophysics","55","255161","0.0-7.0-0.0-0.22","475","","arrowright","","","","","","","","","","","","","key","arrowright","8.332954545454578","853.3333333333334","529.3333333333334","arrowright","true","../../test_img/15.png","朋友","prac_matching_task","自我","[""<img src=\""../../test_img/26.png\"" width=150 style=\""vertical-align:middle\"">---生人"",""<img src=\""../../test_img/22.png\"" width=150 style=\""vertical-align:middle\"">---朋友"",""<img src=\""../../test_img/15.png\"" width=150 style=\""vertical-align:middle\"">---自我""]","","",""
"","","","","","html-keyboard-response","56","255470","0.0-7.0-0.0-1.22","null","<span style='color:GreenYellow; font-size: 70px;'>正确! </span>","null","","","","","","","","","","","","","","","","","","","","","","","","","feedback_test","",""
"","","","","","psychophysics","57","256962","0.0-7.0-0.0-0.23","489","","arrowright","","","","","","","","","","","","","key","arrowright","8.332056179775279","853.3333333333334","529.3333333333334","arrowright","true","../../test_img/26.png","朋友","prac_matching_task","生人","[""<img src=\""../../test_img/26.png\"" width=150 style=\""vertical-align:middle\"">---生人"",""<img src=\""../../test_img/22.png\"" width=150 style=\""vertical-align:middle\"">---朋友"",""<img src=\""../../test_img/15.png\"" width=150 style=\""vertical-align:middle\"">---自我""]","","",""
"","","","","","html-keyboard-response","58","257273","0.0-7.0-0.0-1.23","null","<span style='color:GreenYellow; font-size: 70px;'>正确! </span>","null","","","","","","","","","","","","","","","","","","","","","","","","","feedback_test","",""
"","","","","","html-keyboard-response","59","269808","0.0-7.0-1.0-0.0","12533","<style>.context{color:white; font-size: 35px; line-height:40px}</style>                          <div><p class='context'>您正确回答了63% 的试次。</p ><p class='context'>您的平均反应时为629毫秒。</p >"," ","","","","","","","","","","","","","","","","","","","","","","","","","","",""
"","","","","","instructions","60","277148","0.0-7.0-1.0-1.0","7339","","","","","","","","","","","","","","[{""page_index"":0,""viewing_time"":2493},{""page_index"":1,""viewing_time"":2192},{""page_index"":2,""viewing_time"":1449},{""page_index"":3,""viewing_time"":1204}]","","","","","","","","","","","","","","",""
"","","","","","psychophysics","61","278806","0.0-7.1-0.1-0.24","651","","arrowleft","","","","","","","","","","","","","key","arrowleft","8.3328282828284","853.3333333333334","529.3333333333334","arrowleft","true","../../test_img/26.png","生人","prac_matching_task","生人","[""<img src=\""../../test_img/26.png\"" width=150 style=\""vertical-align:middle\"">---生人"",""<img src=\""../../test_img/22.png\"" width=150 style=\""vertical-align:middle\"">---朋友"",""<img src=\""../../test_img/15.png\"" width=150 style=\""vertical-align:middle\"">---自我""]","","",""
"","","","","","html-keyboard-response","62","279122","0.0-7.1-0.1-1.24","null","<span style='color:GreenYellow; font-size: 70px;'>正确! </span>","null","","","","","","","","","","","","","","","","","","","","","","","","","feedback_test","",""
"","","","","","psychophysics","63","280713","0.0-7.1-0.1-0.25","589","","arrowright","","","","","","","","","","","","","key","arrowright","8.333333333333334","853.3333333333334","529.3333333333334","arrowright","true","../../test_img/15.png","朋友","prac_matching_task","自我","[""<img src=\""../../test_img/26.png\"" width=150 style=\""vertical-align:middle\"">---生人"",""<img src=\""../../test_img/22.png\"" width=150 style=\""vertical-align:middle\"">---朋友"",""<img src=\""../../test_img/15.png\"" width=150 style=\""vertical-align:middle\"">---自我""]","","",""
"","","","","","html-keyboard-response","64","281015","0.0-7.1-0.1-1.25","null","<span style='color:GreenYellow; font-size: 70px;'>正确! </span>","null","","","","","","","","","","","","","","","","","","","","","","","","","feedback_test","",""
"","","","","","psychophysics","65","282649","0.0-7.1-0.1-0.26","627","","arrowleft","","","","","","","","","","","","","key","arrowleft","8.333333333333334","853.3333333333334","529.3333333333334","arrowleft","true","../../test_img/15.png","自我","prac_matching_task","自我","[""<img src=\""../../test_img/26.png\"" width=150 style=\""vertical-align:middle\"">---生人"",""<img src=\""../../test_img/22.png\"" width=150 style=\""vertical-align:middle\"">---朋友"",""<img src=\""../../test_img/15.png\"" width=150 style=\""vertical-align:middle\"">---自我""]","","",""
"","","","","","html-keyboard-response","66","282953","0.0-7.1-0.1-1.26","null","<span style='color:GreenYellow; font-size: 70px;'>正确! </span>","null","","","","","","","","","","","","","","","","","","","","","","","","","feedback_test","",""
"","","","","","psychophysics","67","284480","0.0-7.1-0.1-0.27","525","","arrowright","","","","","","","","","","","","","key","arrowright","8.323756906077541","853.3333333333334","529.3333333333334","arrowright","true","../../test_img/22.png","生人","prac_matching_task","朋友","[""<img src=\""../../test_img/26.png\"" width=150 style=\""vertical-align:middle\"">---生人"",""<img src=\""../../test_img/22.png\"" width=150 style=\""vertical-align:middle\"">---朋友"",""<img src=\""../../test_img/15.png\"" width=150 style=\""vertical-align:middle\"">---自我""]","","",""
"","","","","","html-keyboard-response","68","284782","0.0-7.1-0.1-1.27","null","<span style='color:GreenYellow; font-size: 70px;'>正确! </span>","null","","","","","","","","","","","","","","","","","","","","","","","","","feedback_test","",""
"","","","","","psychophysics","69","286219","0.0-7.1-0.1-0.28","430","","arrowright","","","","","","","","","","","","","key","arrowright","8.333918128654835","853.3333333333334","529.3333333333334","arrowleft","false","../../test_img/26.png","生人","prac_matching_task","生人","[""<img src=\""../../test_img/26.png\"" width=150 style=\""vertical-align:middle\"">---生人"",""<img src=\""../../test_img/22.png\"" width=150 style=\""vertical-align:middle\"">---朋友"",""<img src=\""../../test_img/15.png\"" width=150 style=\""vertical-align:middle\"">---自我""]","","",""
"","","","","","html-keyboard-response","70","286528","0.0-7.1-0.1-1.28","null","<span style='color:red; font-size: 70px;'>错误! </span>","null","","","","","","","","","","","","","","","","","","","","","","","","","feedback_test","",""
"","","","","","psychophysics","71","288226","0.0-7.1-0.1-0.29","695","","arrowright","","","","","","","","","","","","","key","arrowright","8.333004926108547","853.3333333333334","529.3333333333334","arrowright","true","../../test_img/26.png","朋友","prac_matching_task","生人","[""<img src=\""../../test_img/26.png\"" width=150 style=\""vertical-align:middle\"">---生人"",""<img src=\""../../test_img/22.png\"" width=150 style=\""vertical-align:middle\"">---朋友"",""<img src=\""../../test_img/15.png\"" width=150 style=\""vertical-align:middle\"">---自我""]","","",""
"","","","","","html-keyboard-response","72","288530","0.0-7.1-0.1-1.29","null","<span style='color:GreenYellow; font-size: 70px;'>正确! </span>","null","","","","","","","","","","","","","","","","","","","","","","","","","feedback_test","",""
"","","","","","psychophysics","73","290010","0.0-7.1-0.1-0.30","478","","arrowleft","","","","","","","","","","","","","key","arrowleft","8.335795454545654","853.3333333333334","529.3333333333334","arrowleft","true","../../test_img/22.png","朋友","prac_matching_task","朋友","[""<img src=\""../../test_img/26.png\"" width=150 style=\""vertical-align:middle\"">---生人"",""<img src=\""../../test_img/22.png\"" width=150 style=\""vertical-align:middle\"">---朋友"",""<img src=\""../../test_img/15.png\"" width=150 style=\""vertical-align:middle\"">---自我""]","","",""
"","","","","","html-keyboard-response","74","290320","0.0-7.1-0.1-1.30","null","<span style='color:GreenYellow; font-size: 70px;'>正确! </span>","null","","","","","","","","","","","","","","","","","","","","","","","","","feedback_test","",""
"","","","","","psychophysics","75","291761","0.0-7.1-0.1-0.31","439","","arrowleft","","","","","","","","","","","","","key","arrowleft","8.332011627907145","853.3333333333334","529.3333333333334","arrowleft","true","../../test_img/22.png","朋友","prac_matching_task","朋友","[""<img src=\""../../test_img/26.png\"" width=150 style=\""vertical-align:middle\"">---生人"",""<img src=\""../../test_img/22.png\"" width=150 style=\""vertical-align:middle\"">---朋友"",""<img src=\""../../test_img/15.png\"" width=150 style=\""vertical-align:middle\"">---自我""]","","",""
"","","","","","html-keyboard-response","76","292068","0.0-7.1-0.1-1.31","null","<span style='color:GreenYellow; font-size: 70px;'>正确! </span>","null","","","","","","","","","","","","","","","","","","","","","","","","","feedback_test","",""
"","","","","","psychophysics","77","293493","0.0-7.1-0.1-0.32","424","","arrowright","","","","","","","","","","","","","key","arrowright","8.332941176470793","853.3333333333334","529.3333333333334","arrowright","true","../../test_img/22.png","自我","prac_matching_task","朋友","[""<img src=\""../../test_img/26.png\"" width=150 style=\""vertical-align:middle\"">---生人"",""<img src=\""../../test_img/22.png\"" width=150 style=\""vertical-align:middle\"">---朋友"",""<img src=\""../../test_img/15.png\"" width=150 style=\""vertical-align:middle\"">---自我""]","","",""
"","","","","","html-keyboard-response","78","293803","0.0-7.1-0.1-1.32","null","<span style='color:GreenYellow; font-size: 70px;'>正确! </span>","null","","","","","","","","","","","","","","","","","","","","","","","","","feedback_test","",""
"","","","","","psychophysics","79","295377","0.0-7.1-0.1-0.33","572","","arrowleft","","","","","","","","","","","","","key","arrowleft","8.328342245989429","853.3333333333334","529.3333333333334","arrowleft","true","../../test_img/15.png","自我","prac_matching_task","自我","[""<img src=\""../../test_img/26.png\"" width=150 style=\""vertical-align:middle\"">---生人"",""<img src=\""../../test_img/22.png\"" width=150 style=\""vertical-align:middle\"">---朋友"",""<img src=\""../../test_img/15.png\"" width=150 style=\""vertical-align:middle\"">---自我""]","","",""
"","","","","","html-keyboard-response","80","295692","0.0-7.1-0.1-1.33","null","<span style='color:GreenYellow; font-size: 70px;'>正确! </span>","null","","","","","","","","","","","","","","","","","","","","","","","","","feedback_test","",""
"","","","","","psychophysics","81","297491","0.0-7.1-0.1-0.34","795","","arrowright","","","","","","","","","","","","","key","arrowright","8.333023255813846","853.3333333333334","529.3333333333334","arrowright","true","../../test_img/15.png","生人","prac_matching_task","自我","[""<img src=\""../../test_img/26.png\"" width=150 style=\""vertical-align:middle\"">---生人"",""<img src=\""../../test_img/22.png\"" width=150 style=\""vertical-align:middle\"">---朋友"",""<img src=\""../../test_img/15.png\"" width=150 style=\""vertical-align:middle\"">---自我""]","","",""
"","","","","","html-keyboard-response","82","297797","0.0-7.1-0.1-1.34","null","<span style='color:GreenYellow; font-size: 70px;'>正确! </span>","null","","","","","","","","","","","","","","","","","","","","","","","","","feedback_test","",""
"","","","","","psychophysics","83","299337","0.0-7.1-0.1-0.35","539","","arrowleft","","","","","","","","","","","","","key","arrowleft","8.333879781420638","853.3333333333334","529.3333333333334","arrowright","false","../../test_img/26.png","自我","prac_matching_task","生人","[""<img src=\""../../test_img/26.png\"" width=150 style=\""vertical-align:middle\"">---生人"",""<img src=\""../../test_img/22.png\"" width=150 style=\""vertical-align:middle\"">---朋友"",""<img src=\""../../test_img/15.png\"" width=150 style=\""vertical-align:middle\"">---自我""]","","",""
"","","","","","html-keyboard-response","84","299641","0.0-7.1-0.1-1.35","null","<span style='color:red; font-size: 70px;'>错误! </span>","null","","","","","","","","","","","","","","","","","","","","","","","","","feedback_test","",""
"","","","","","psychophysics","85","301212","0.0-7.1-0.1-0.36","568","","arrowright","","","","","","","","","","","","","key","arrowright","8.332620320855366","853.3333333333334","529.3333333333334","arrowright","true","../../test_img/15.png","生人","prac_matching_task","自我","[""<img src=\""../../test_img/26.png\"" width=150 style=\""vertical-align:middle\"">---生人"",""<img src=\""../../test_img/22.png\"" width=150 style=\""vertical-align:middle\"">---朋友"",""<img src=\""../../test_img/15.png\"" width=150 style=\""vertical-align:middle\"">---自我""]","","",""
"","","","","","html-keyboard-response","86","301520","0.0-7.1-0.1-1.36","null","<span style='color:GreenYellow; font-size: 70px;'>正确! </span>","null","","","","","","","","","","","","","","","","","","","","","","","","","feedback_test","",""
"","","","","","psychophysics","87","303071","0.0-7.1-0.1-0.37","549","","arrowleft","","","","","","","","","","","","","key","arrowleft","8.330978260869692","853.3333333333334","529.3333333333334","arrowleft","true","../../test_img/22.png","朋友","prac_matching_task","朋友","[""<img src=\""../../test_img/26.png\"" width=150 style=\""vertical-align:middle\"">---生人"",""<img src=\""../../test_img/22.png\"" width=150 style=\""vertical-align:middle\"">---朋友"",""<img src=\""../../test_img/15.png\"" width=150 style=\""vertical-align:middle\"">---自我""]","","",""
"","","","","","html-keyboard-response","88","303373","0.0-7.1-0.1-1.37","null","<span style='color:GreenYellow; font-size: 70px;'>正确! </span>","null","","","","","","","","","","","","","","","","","","","","","","","","","feedback_test","",""
"","","","","","psychophysics","89","305190","0.0-7.1-0.1-0.38","810","","arrowleft","","","","","","","","","","","","","key","arrowleft","8.333179723502251","853.3333333333334","529.3333333333334","arrowleft","true","../../test_img/26.png","生人","prac_matching_task","生人","[""<img src=\""../../test_img/26.png\"" width=150 style=\""vertical-align:middle\"">---生人"",""<img src=\""../../test_img/22.png\"" width=150 style=\""vertical-align:middle\"">---朋友"",""<img src=\""../../test_img/15.png\"" width=150 style=\""vertical-align:middle\"">---自我""]","","",""
"","","","","","html-keyboard-response","90","305501","0.0-7.1-0.1-1.38","null","<span style='color:GreenYellow; font-size: 70px;'>正确! </span>","null","","","","","","","","","","","","","","","","","","","","","","","","","feedback_test","",""
"","","","","","psychophysics","91","307068","0.0-7.1-0.1-0.39","563","","arrowright","","","","","","","","","","","","","key","arrowright","8.327839572192419","853.3333333333334","529.3333333333334","arrowleft","false","../../test_img/15.png","自我","prac_matching_task","自我","[""<img src=\""../../test_img/26.png\"" width=150 style=\""vertical-align:middle\"">---生人"",""<img src=\""../../test_img/22.png\"" width=150 style=\""vertical-align:middle\"">---朋友"",""<img src=\""../../test_img/15.png\"" width=150 style=\""vertical-align:middle\"">---自我""]","","",""
"","","","","","html-keyboard-response","92","307377","0.0-7.1-0.1-1.39","null","<span style='color:red; font-size: 70px;'>错误! </span>","null","","","","","","","","","","","","","","","","","","","","","","","","","feedback_test","",""
"","","","","","psychophysics","93","309003","0.0-7.1-0.1-0.40","624","","arrowright","","","","","","","","","","","","","key","arrowright","8.33302061855655","853.3333333333334","529.3333333333334","arrowright","true","../../test_img/22.png","自我","prac_matching_task","朋友","[""<img src=\""../../test_img/26.png\"" width=150 style=\""vertical-align:middle\"">---生人"",""<img src=\""../../test_img/22.png\"" width=150 style=\""vertical-align:middle\"">---朋友"",""<img src=\""../../test_img/15.png\"" width=150 style=\""vertical-align:middle\"">---自我""]","","",""
"","","","","","html-keyboard-response","94","309312","0.0-7.1-0.1-1.40","null","<span style='color:GreenYellow; font-size: 70px;'>正确! </span>","null","","","","","","","","","","","","","","","","","","","","","","","","","feedback_test","",""
"","","","","","psychophysics","95","310993","0.0-7.1-0.1-0.41","680","","arrowright","","","","","","","","","","","","","key","arrowright","8.333000000000174","853.3333333333334","529.3333333333334","arrowright","true","../../test_img/26.png","朋友","prac_matching_task","生人","[""<img src=\""../../test_img/26.png\"" width=150 style=\""vertical-align:middle\"">---生人"",""<img src=\""../../test_img/22.png\"" width=150 style=\""vertical-align:middle\"">---朋友"",""<img src=\""../../test_img/15.png\"" width=150 style=\""vertical-align:middle\"">---自我""]","","",""
"","","","","","html-keyboard-response","96","311300","0.0-7.1-0.1-1.41","null","<span style='color:GreenYellow; font-size: 70px;'>正确! </span>","null","","","","","","","","","","","","","","","","","","","","","","","","","feedback_test","",""
"","","","","","psychophysics","97","312916","0.0-7.1-0.1-0.42","611","","arrowleft","","","","","","","","","","","","","key","arrowleft","8.333160621761598","853.3333333333334","529.3333333333334","arrowleft","true","../../test_img/22.png","朋友","prac_matching_task","朋友","[""<img src=\""../../test_img/26.png\"" width=150 style=\""vertical-align:middle\"">---生人"",""<img src=\""../../test_img/22.png\"" width=150 style=\""vertical-align:middle\"">---朋友"",""<img src=\""../../test_img/15.png\"" width=150 style=\""vertical-align:middle\"">---自我""]","","",""
"","","","","","html-keyboard-response","98","313220","0.0-7.1-0.1-1.42","null","<span style='color:GreenYellow; font-size: 70px;'>正确! </span>","null","","","","","","","","","","","","","","","","","","","","","","","","","feedback_test","",""
"","","","","","psychophysics","99","315025","0.0-7.1-0.1-0.43","803","","arrowright","","","","","","","","","","","","","key","arrowright","8.332558139534884","853.3333333333334","529.3333333333334","arrowright","true","../../test_img/22.png","生人","prac_matching_task","朋友","[""<img src=\""../../test_img/26.png\"" width=150 style=\""vertical-align:middle\"">---生人"",""<img src=\""../../test_img/22.png\"" width=150 style=\""vertical-align:middle\"">---朋友"",""<img src=\""../../test_img/15.png\"" width=150 style=\""vertical-align:middle\"">---自我""]","","",""
"","","","","","html-keyboard-response","100","315332","0.0-7.1-0.1-1.43","null","<span style='color:GreenYellow; font-size: 70px;'>正确! </span>","null","","","","","","","","","","","","","","","","","","","","","","","","","feedback_test","",""
"","","","","","psychophysics","101","316854","0.0-7.1-0.1-0.44","520","","arrowright","","","","","","","","","","","","","key","arrowright","8.333149171270653","853.3333333333334","529.3333333333334","arrowright","true","../../test_img/15.png","朋友","prac_matching_task","自我","[""<img src=\""../../test_img/26.png\"" width=150 style=\""vertical-align:middle\"">---生人"",""<img src=\""../../test_img/22.png\"" width=150 style=\""vertical-align:middle\"">---朋友"",""<img src=\""../../test_img/15.png\"" width=150 style=\""vertical-align:middle\"">---自我""]","","",""
"","","","","","html-keyboard-response","102","317163","0.0-7.1-0.1-1.44","null","<span style='color:GreenYellow; font-size: 70px;'>正确! </span>","null","","","","","","","","","","","","","","","","","","","","","","","","","feedback_test","",""
"","","","","","psychophysics","103","318702","0.0-7.1-0.1-0.45","537","","arrowleft","","","","","","","","","","","","","key","arrowleft","8.333333333333334","853.3333333333334","529.3333333333334","arrowleft","true","../../test_img/15.png","自我","prac_matching_task","自我","[""<img src=\""../../test_img/26.png\"" width=150 style=\""vertical-align:middle\"">---生人"",""<img src=\""../../test_img/22.png\"" width=150 style=\""vertical-align:middle\"">---朋友"",""<img src=\""../../test_img/15.png\"" width=150 style=\""vertical-align:middle\"">---自我""]","","",""
"","","","","","html-keyboard-response","104","319006","0.0-7.1-0.1-1.45","null","<span style='color:GreenYellow; font-size: 70px;'>正确! </span>","null","","","","","","","","","","","","","","","","","","","","","","","","","feedback_test","",""
"","","","","","psychophysics","105","320508","0.0-7.1-0.1-0.46","495","","arrowright","","","","","","","","","","","","","key","arrowright","8.335195530726256","853.3333333333334","529.3333333333334","arrowleft","false","../../test_img/26.png","生人","prac_matching_task","生人","[""<img src=\""../../test_img/26.png\"" width=150 style=\""vertical-align:middle\"">---生人"",""<img src=\""../../test_img/22.png\"" width=150 style=\""vertical-align:middle\"">---朋友"",""<img src=\""../../test_img/15.png\"" width=150 style=\""vertical-align:middle\"">---自我""]","","",""
"","","","","","html-keyboard-response","106","320810","0.0-7.1-0.1-1.46","null","<span style='color:red; font-size: 70px;'>错误! </span>","null","","","","","","","","","","","","","","","","","","","","","","","","","feedback_test","",""
"","","","","","psychophysics","107","322309","0.0-7.1-0.1-0.47","498","","arrowright","","","","","","","","","","","","","key","arrowright","8.334636871508184","853.3333333333334","529.3333333333334","arrowright","true","../../test_img/26.png","自我","prac_matching_task","生人","[""<img src=\""../../test_img/26.png\"" width=150 style=\""vertical-align:middle\"">---生人"",""<img src=\""../../test_img/22.png\"" width=150 style=\""vertical-align:middle\"">---朋友"",""<img src=\""../../test_img/15.png\"" width=150 style=\""vertical-align:middle\"">---自我""]","","",""
"","","","","","html-keyboard-response","108","322622","0.0-7.1-0.1-1.47","null","<span style='color:GreenYellow; font-size: 70px;'>正确! </span>","null","","","","","","","","","","","","","","","","","","","","","","","","","feedback_test","",""
"","","","","","html-keyboard-response","109","330919","0.0-8.0","8295","<style>.context{color:white; font-size: 35px; line-height:40px}</style>                          <div><p class='context'>您正确回答了83% 的试次。</p ><p class='context'>您的平均反应时为600毫秒。</p ><p class='context'>恭喜您完成练习。按任意键进入知觉匹配任务正式实验。</p ><p style = 'color:lightgreen; font-size: 35px;' >正式实验与练习要求相同，请您尽可能又快又准地进行按键反应</p><p class='footer' style='font-size: 22px; line-height:40px;'>请将您右手的<span style='color: lightgreen;'>食指与无名指</span>放在电脑键盘的相应键位上进行按键。</p >","arrowright","","","","","","","","","","","","","","","","","","","","","","","","","","",""
"","","","","","psychophysics","110","332475","0.0-9.0-0.0-0.0-0.0-0.0","554","","arrowright","","","","","","","","","","","","","key","arrowright","8.336021505376344","853.3333333333334","529.3333333333334","arrowleft","false","../../test_img/15.png","自我","matching_task","自我","[""<img src=\""../../test_img/26.png\"" width=150 style=\""vertical-align:middle\"">---生人"",""<img src=\""../../test_img/22.png\"" width=150 style=\""vertical-align:middle\"">---朋友"",""<img src=\""../../test_img/15.png\"" width=150 style=\""vertical-align:middle\"">---自我""]","","",""
"","","","","","html-keyboard-response","111","332980","0.0-9.0-0.0-0.0-0.0-1.0","null","<span style='color:red; font-size: 70px;'>错误! </span>","null","","","","","","","","","","","","","","","","","","","","","","","","","feedback_test","",""
"","","","","","psychophysics","112","334732","0.0-9.0-0.0-0.0-0.0-0.1","747","","arrowleft","","","","","","","","","","","","","key","arrowleft","8.333014354067153","853.3333333333334","529.3333333333334","arrowleft","true","../../test_img/22.png","朋友","matching_task","朋友","[""<img src=\""../../test_img/26.png\"" width=150 style=\""vertical-align:middle\"">---生人"",""<img src=\""../../test_img/22.png\"" width=150 style=\""vertical-align:middle\"">---朋友"",""<img src=\""../../test_img/15.png\"" width=150 style=\""vertical-align:middle\"">---自我""]","","",""
"","","","","","html-keyboard-response","113","335248","0.0-9.0-0.0-0.0-0.0-1.1","null","<span style='color:GreenYellow; font-size: 70px;'>正确! </span>","null","","","","","","","","","","","","","","","","","","","","","","","","","feedback_test","",""
"","","","","","psychophysics","114","336896","0.0-9.0-0.0-0.0-0.0-0.2","642","","arrowleft","","","","","","","","","","","","","key","arrowleft","8.333502538071125","853.3333333333334","529.3333333333334","arrowright","false","../../test_img/22.png","生人","matching_task","朋友","[""<img src=\""../../test_img/26.png\"" width=150 style=\""vertical-align:middle\"">---生人"",""<img src=\""../../test_img/22.png\"" width=150 style=\""vertical-align:middle\"">---朋友"",""<img src=\""../../test_img/15.png\"" width=150 style=\""vertical-align:middle\"">---自我""]","","",""
"","","","","","html-keyboard-response","115","337410","0.0-9.0-0.0-0.0-0.0-1.2","null","<span style='color:red; font-size: 70px;'>错误! </span>","null","","","","","","","","","","","","","","","","","","","","","","","","","feedback_test","",""
"","","","","","psychophysics","116","339047","0.0-9.0-0.0-0.0-0.0-0.3","635","","arrowright","","","","","","","","","","","","","key","arrowright","8.332142857142738","853.3333333333334","529.3333333333334","arrowright","true","../../test_img/26.png","自我","matching_task","生人","[""<img src=\""../../test_img/26.png\"" width=150 style=\""vertical-align:middle\"">---生人"",""<img src=\""../../test_img/22.png\"" width=150 style=\""vertical-align:middle\"">---朋友"",""<img src=\""../../test_img/15.png\"" width=150 style=\""vertical-align:middle\"">---自我""]","","",""
"","","","","","html-keyboard-response","117","339560","0.0-9.0-0.0-0.0-0.0-1.3","null","<span style='color:GreenYellow; font-size: 70px;'>正确! </span>","null","","","","","","","","","","","","","","","","","","","","","","","","","feedback_test","",""
"","","","","","psychophysics","118","341196","0.0-9.0-0.0-0.0-0.0-0.4","635","","arrowright","","","","","","","","","","","","","key","arrowright","8.333673469387874","853.3333333333334","529.3333333333334","arrowright","true","../../test_img/26.png","朋友","matching_task","生人","[""<img src=\""../../test_img/26.png\"" width=150 style=\""vertical-align:middle\"">---生人"",""<img src=\""../../test_img/22.png\"" width=150 style=\""vertical-align:middle\"">---朋友"",""<img src=\""../../test_img/15.png\"" width=150 style=\""vertical-align:middle\"">---自我""]","","",""
"","","","","","html-keyboard-response","119","341703","0.0-9.0-0.0-0.0-0.0-1.4","null","<span style='color:GreenYellow; font-size: 70px;'>正确! </span>","null","","","","","","","","","","","","","","","","","","","","","","","","","feedback_test","",""
"","","","","","psychophysics","120","343298","0.0-9.0-0.0-0.0-0.0-0.5","595","","arrowleft","","","","","","","","","","","","","key","arrowleft","8.33315789473678","853.3333333333334","529.3333333333334","arrowright","false","../../test_img/15.png","朋友","matching_task","自我","[""<img src=\""../../test_img/26.png\"" width=150 style=\""vertical-align:middle\"">---生人"",""<img src=\""../../test_img/22.png\"" width=150 style=\""vertical-align:middle\"">---朋友"",""<img src=\""../../test_img/15.png\"" width=150 style=\""vertical-align:middle\"">---自我""]","","",""
"","","","","","html-keyboard-response","121","343804","0.0-9.0-0.0-0.0-0.0-1.5","null","<span style='color:red; font-size: 70px;'>错误! </span>","null","","","","","","","","","","","","","","","","","","","","","","","","","feedback_test","",""
"","","","","","psychophysics","122","345424","0.0-9.0-0.0-0.0-0.0-0.6","617","","arrowright","","","","","","","","","","","","","key","arrowright","8.333678756476504","853.3333333333334","529.3333333333334","arrowright","true","../../test_img/15.png","生人","matching_task","自我","[""<img src=\""../../test_img/26.png\"" width=150 style=\""vertical-align:middle\"">---生人"",""<img src=\""../../test_img/22.png\"" width=150 style=\""vertical-align:middle\"">---朋友"",""<img src=\""../../test_img/15.png\"" width=150 style=\""vertical-align:middle\"">---自我""]","","",""
"","","","","","html-keyboard-response","123","345934","0.0-9.0-0.0-0.0-0.0-1.6","null","<span style='color:GreenYellow; font-size: 70px;'>正确! </span>","null","","","","","","","","","","","","","","","","","","","","","","","","","feedback_test","",""
"","","","","","psychophysics","124","347399","0.0-9.0-0.0-0.0-0.0-0.7","462","","arrowright","","","","","","","","","","","","","key","arrowright","8.330971428571669","853.3333333333334","529.3333333333334","arrowleft","false","../../test_img/26.png","生人","matching_task","生人","[""<img src=\""../../test_img/26.png\"" width=150 style=\""vertical-align:middle\"">---生人"",""<img src=\""../../test_img/22.png\"" width=150 style=\""vertical-align:middle\"">---朋友"",""<img src=\""../../test_img/15.png\"" width=150 style=\""vertical-align:middle\"">---自我""]","","",""
"","","","","","html-keyboard-response","125","347909","0.0-9.0-0.0-0.0-0.0-1.7","null","<span style='color:red; font-size: 70px;'>错误! </span>","null","","","","","","","","","","","","","","","","","","","","","","","","","feedback_test","",""
"","","","","","psychophysics","126","349478","0.0-9.0-0.0-0.0-0.0-0.8","567","","arrowleft","","","","","","","","","","","","","key","arrowleft","8.333155080213842","853.3333333333334","529.3333333333334","arrowleft","true","../../test_img/26.png","生人","matching_task","生人","[""<img src=\""../../test_img/26.png\"" width=150 style=\""vertical-align:middle\"">---生人"",""<img src=\""../../test_img/22.png\"" width=150 style=\""vertical-align:middle\"">---朋友"",""<img src=\""../../test_img/15.png\"" width=150 style=\""vertical-align:middle\"">---自我""]","","",""
"","","","","","html-keyboard-response","127","349990","0.0-9.0-0.0-0.0-0.0-1.8","null","<span style='color:GreenYellow; font-size: 70px;'>正确! </span>","null","","","","","","","","","","","","","","","","","","","","","","","","","feedback_test","",""
"","","","","","psychophysics","128","351541","0.0-9.0-0.0-0.0-0.0-0.9","546","","arrowleft","","","","","","","","","","","","","key","arrowleft","8.331610810810801","853.3333333333334","529.3333333333334","arrowright","false","../../test_img/22.png","自我","matching_task","朋友","[""<img src=\""../../test_img/26.png\"" width=150 style=\""vertical-align:middle\"">---生人"",""<img src=\""../../test_img/22.png\"" width=150 style=\""vertical-align:middle\"">---朋友"",""<img src=\""../../test_img/15.png\"" width=150 style=\""vertical-align:middle\"">---自我""]","","",""
"","","","","","html-keyboard-response","129","352045","0.0-9.0-0.0-0.0-0.0-1.9","null","<span style='color:red; font-size: 70px;'>错误! </span>","null","","","","","","","","","","","","","","","","","","","","","","","","","feedback_test","",""
"","","","","","psychophysics","130","353692","0.0-9.0-0.0-0.0-0.0-0.10","639","","arrowleft","","","","","","","","","","","","","key","arrowleft","8.33316326530636","853.3333333333334","529.3333333333334","arrowleft","true","../../test_img/22.png","朋友","matching_task","朋友","[""<img src=\""../../test_img/26.png\"" width=150 style=\""vertical-align:middle\"">---生人"",""<img src=\""../../test_img/22.png\"" width=150 style=\""vertical-align:middle\"">---朋友"",""<img src=\""../../test_img/15.png\"" width=150 style=\""vertical-align:middle\"">---自我""]","","",""
"","","","","","html-keyboard-response","131","354199","0.0-9.0-0.0-0.0-0.0-1.10","null","<span style='color:GreenYellow; font-size: 70px;'>正确! </span>","null","","","","","","","","","","","","","","","","","","","","","","","","","feedback_test","",""
"","","","","","psychophysics","132","355711","0.0-9.0-0.0-0.0-0.0-0.11","508","","arrowright","","","","","","","","","","","","","key","arrowright","8.332777777777908","853.3333333333334","529.3333333333334","arrowleft","false","../../test_img/15.png","自我","matching_task","自我","[""<img src=\""../../test_img/26.png\"" width=150 style=\""vertical-align:middle\"">---生人"",""<img src=\""../../test_img/22.png\"" width=150 style=\""vertical-align:middle\"">---朋友"",""<img src=\""../../test_img/15.png\"" width=150 style=\""vertical-align:middle\"">---自我""]","","",""
"","","","","","html-keyboard-response","133","356215","0.0-9.0-0.0-0.0-0.0-1.11","null","<span style='color:red; font-size: 70px;'>错误! </span>","null","","","","","","","","","","","","","","","","","","","","","","","","","feedback_test","",""
"","","","","","psychophysics","134","357915","0.0-9.0-0.0-0.0-0.0-0.12","695","","arrowright","","","","","","","","","","","","","key","arrowright","8.33349753694587","853.3333333333334","529.3333333333334","arrowright","true","../../test_img/26.png","自我","matching_task","生人","[""<img src=\""../../test_img/26.png\"" width=150 style=\""vertical-align:middle\"">---生人"",""<img src=\""../../test_img/22.png\"" width=150 style=\""vertical-align:middle\"">---朋友"",""<img src=\""../../test_img/15.png\"" width=150 style=\""vertical-align:middle\"">---自我""]","","",""
"","","","","","html-keyboard-response","135","358422","0.0-9.0-0.0-0.0-0.0-1.12","null","<span style='color:GreenYellow; font-size: 70px;'>正确! </span>","null","","","","","","","","","","","","","","","","","","","","","","","","","feedback_test","",""
"","","","","","psychophysics","136","359993","0.0-9.0-0.0-0.0-0.0-0.13","569","","arrowright","","","","","","","","","","","","","key","arrowright","8.332620320855677","853.3333333333334","529.3333333333334","arrowleft","false","../../test_img/15.png","自我","matching_task","自我","[""<img src=\""../../test_img/26.png\"" width=150 style=\""vertical-align:middle\"">---生人"",""<img src=\""../../test_img/22.png\"" width=150 style=\""vertical-align:middle\"">---朋友"",""<img src=\""../../test_img/15.png\"" width=150 style=\""vertical-align:middle\"">---自我""]","","",""
"","","","","","html-keyboard-response","137","360503","0.0-9.0-0.0-0.0-0.0-1.13","null","<span style='color:red; font-size: 70px;'>错误! </span>","null","","","","","","","","","","","","","","","","","","","","","","","","","feedback_test","",""
"","","","","","psychophysics","138","362086","0.0-9.0-0.0-0.0-0.0-0.14","582","","arrowright","","","","","","","","","","","","","key","arrowright","8.33457446808492","853.3333333333334","529.3333333333334","arrowright","true","../../test_img/15.png","生人","matching_task","自我","[""<img src=\""../../test_img/26.png\"" width=150 style=\""vertical-align:middle\"">---生人"",""<img src=\""../../test_img/22.png\"" width=150 style=\""vertical-align:middle\"">---朋友"",""<img src=\""../../test_img/15.png\"" width=150 style=\""vertical-align:middle\"">---自我""]","","",""
"","","","","","html-keyboard-response","139","362598","0.0-9.0-0.0-0.0-0.0-1.14","null","<span style='color:GreenYellow; font-size: 70px;'>正确! </span>","null","","","","","","","","","","","","","","","","","","","","","","","","","feedback_test","",""
"","","","","","psychophysics","140","364230","0.0-9.0-0.0-0.0-0.0-0.15","627","","arrowright","","","","","","","","","","","","","key","arrowright","8.333333333333334","853.3333333333334","529.3333333333334","arrowright","true","../../test_img/26.png","朋友","matching_task","生人","[""<img src=\""../../test_img/26.png\"" width=150 style=\""vertical-align:middle\"">---生人"",""<img src=\""../../test_img/22.png\"" width=150 style=\""vertical-align:middle\"">---朋友"",""<img src=\""../../test_img/15.png\"" width=150 style=\""vertical-align:middle\"">---自我""]","","",""
"","","","","","html-keyboard-response","141","364736","0.0-9.0-0.0-0.0-0.0-1.15","null","<span style='color:GreenYellow; font-size: 70px;'>正确! </span>","null","","","","","","","","","","","","","","","","","","","","","","","","","feedback_test","",""
"","","","","","psychophysics","142","366211","0.0-9.0-0.0-0.0-0.0-0.16","473","","arrowleft","","","","","","","","","","","","","key","arrowleft","8.33485714285701","853.3333333333334","529.3333333333334","arrowleft","true","../../test_img/22.png","朋友","matching_task","朋友","[""<img src=\""../../test_img/26.png\"" width=150 style=\""vertical-align:middle\"">---生人"",""<img src=\""../../test_img/22.png\"" width=150 style=\""vertical-align:middle\"">---朋友"",""<img src=\""../../test_img/15.png\"" width=150 style=\""vertical-align:middle\"">---自我""]","","",""
"","","","","","html-keyboard-response","143","366722","0.0-9.0-0.0-0.0-0.0-1.16","null","<span style='color:GreenYellow; font-size: 70px;'>正确! </span>","null","","","","","","","","","","","","","","","","","","","","","","","","","feedback_test","",""
"","","","","","psychophysics","144","368257","0.0-9.0-0.0-0.0-0.0-0.17","529","","arrowleft","","","","","","","","","","","","","key","arrowleft","8.334710382513862","853.3333333333334","529.3333333333334","arrowleft","true","../../test_img/26.png","生人","matching_task","生人","[""<img src=\""../../test_img/26.png\"" width=150 style=\""vertical-align:middle\"">---生人"",""<img src=\""../../test_img/22.png\"" width=150 style=\""vertical-align:middle\"">---朋友"",""<img src=\""../../test_img/15.png\"" width=150 style=\""vertical-align:middle\"">---自我""]","","",""
"","","","","","html-keyboard-response","145","368764","0.0-9.0-0.0-0.0-0.0-1.17","null","<span style='color:GreenYellow; font-size: 70px;'>正确! </span>","null","","","","","","","","","","","","","","","","","","","","","","","","","feedback_test","",""
"","","","","","psychophysics","146","370262","0.0-9.0-0.0-0.0-0.0-0.18","493","","arrowright","","","","","","","","","","","","","key","arrowright","8.332960893854944","853.3333333333334","529.3333333333334","arrowleft","false","../../test_img/22.png","朋友","matching_task","朋友","[""<img src=\""../../test_img/26.png\"" width=150 style=\""vertical-align:middle\"">---生人"",""<img src=\""../../test_img/22.png\"" width=150 style=\""vertical-align:middle\"">---朋友"",""<img src=\""../../test_img/15.png\"" width=150 style=\""vertical-align:middle\"">---自我""]","","",""
"","","","","","html-keyboard-response","147","370765","0.0-9.0-0.0-0.0-0.0-1.18","null","<span style='color:red; font-size: 70px;'>错误! </span>","null","","","","","","","","","","","","","","","","","","","","","","","","","feedback_test","",""
"","","","","","psychophysics","148","372263","0.0-9.0-0.0-0.0-0.0-0.19","496","","arrowleft","","","","","","","","","","","","","key","arrowleft","8.33351955307269","853.3333333333334","529.3333333333334","arrowleft","true","../../test_img/26.png","生人","matching_task","生人","[""<img src=\""../../test_img/26.png\"" width=150 style=\""vertical-align:middle\"">---生人"",""<img src=\""../../test_img/22.png\"" width=150 style=\""vertical-align:middle\"">---朋友"",""<img src=\""../../test_img/15.png\"" width=150 style=\""vertical-align:middle\"">---自我""]","","",""
"","","","","","html-keyboard-response","149","372771","0.0-9.0-0.0-0.0-0.0-1.19","null","<span style='color:GreenYellow; font-size: 70px;'>正确! </span>","null","","","","","","","","","","","","","","","","","","","","","","","","","feedback_test","",""
"","","","","","psychophysics","150","374257","0.0-9.0-0.0-0.0-0.0-0.20","479","","arrowright","","","","","","","","","","","","","key","arrowright","8.332768361582053","853.3333333333334","529.3333333333334","arrowright","true","../../test_img/15.png","朋友","matching_task","自我","[""<img src=\""../../test_img/26.png\"" width=150 style=\""vertical-align:middle\"">---生人"",""<img src=\""../../test_img/22.png\"" width=150 style=\""vertical-align:middle\"">---朋友"",""<img src=\""../../test_img/15.png\"" width=150 style=\""vertical-align:middle\"">---自我""]","","",""
"","","","","","html-keyboard-response","151","374764","0.0-9.0-0.0-0.0-0.0-1.20","null","<span style='color:GreenYellow; font-size: 70px;'>正确! </span>","null","","","","","","","","","","","","","","","","","","","","","","","","","feedback_test","",""
"","","","","","psychophysics","152","376556","0.0-9.0-0.0-0.0-0.0-0.21","791","","arrowleft","","","","","","","","","","","","","key","arrowleft","8.332710280373886","853.3333333333334","529.3333333333334","arrowleft","true","../../test_img/15.png","自我","matching_task","自我","[""<img src=\""../../test_img/26.png\"" width=150 style=\""vertical-align:middle\"">---生人"",""<img src=\""../../test_img/22.png\"" width=150 style=\""vertical-align:middle\"">---朋友"",""<img src=\""../../test_img/15.png\"" width=150 style=\""vertical-align:middle\"">---自我""]","","",""
"","","","","","html-keyboard-response","153","377063","0.0-9.0-0.0-0.0-0.0-1.21","null","<span style='color:GreenYellow; font-size: 70px;'>正确! </span>","null","","","","","","","","","","","","","","","","","","","","","","","","","feedback_test","",""
"","","","","","psychophysics","154","378708","0.0-9.0-0.0-0.0-0.0-0.22","639","","arrowright","","","","","","","","","","","","","key","arrowright","8.332142857142738","853.3333333333334","529.3333333333334","arrowright","true","../../test_img/22.png","生人","matching_task","朋友","[""<img src=\""../../test_img/26.png\"" width=150 style=\""vertical-align:middle\"">---生人"",""<img src=\""../../test_img/22.png\"" width=150 style=\""vertical-align:middle\"">---朋友"",""<img src=\""../../test_img/15.png\"" width=150 style=\""vertical-align:middle\"">---自我""]","","",""
"","","","","","html-keyboard-response","155","379224","0.0-9.0-0.0-0.0-0.0-1.22","null","<span style='color:GreenYellow; font-size: 70px;'>正确! </span>","null","","","","","","","","","","","","","","","","","","","","","","","","","feedback_test","",""
"","","","","","psychophysics","156","380778","0.0-9.0-0.0-0.0-0.0-0.23","551","","arrowright","","","","","","","","","","","","","key","arrowright","8.332516129032248","853.3333333333334","529.3333333333334","arrowright","true","../../test_img/22.png","自我","matching_task","朋友","[""<img src=\""../../test_img/26.png\"" width=150 style=\""vertical-align:middle\"">---生人"",""<img src=\""../../test_img/22.png\"" width=150 style=\""vertical-align:middle\"">---朋友"",""<img src=\""../../test_img/15.png\"" width=150 style=\""vertical-align:middle\"">---自我""]","","",""
"","","","","","html-keyboard-response","157","381284","0.0-9.0-0.0-0.0-0.0-1.23","null","<span style='color:GreenYellow; font-size: 70px;'>正确! </span>","null","","","","","","","","","","","","","","","","","","","","","","","","","feedback_test","",""
"","","","","","psychophysics","158","382930","0.0-9.0-0.0-0.0-0.0-0.24","644","","arrowleft","","","","","","","","","","","","","key","arrowleft","8.329441624365305","853.3333333333334","529.3333333333334","arrowleft","true","../../test_img/26.png","生人","matching_task","生人","[""<img src=\""../../test_img/26.png\"" width=150 style=\""vertical-align:middle\"">---生人"",""<img src=\""../../test_img/22.png\"" width=150 style=\""vertical-align:middle\"">---朋友"",""<img src=\""../../test_img/15.png\"" width=150 style=\""vertical-align:middle\"">---自我""]","","",""
"","","","","","html-keyboard-response","159","383444","0.0-9.0-0.0-0.0-0.0-1.24","null","<span style='color:GreenYellow; font-size: 70px;'>正确! </span>","null","","","","","","","","","","","","","","","","","","","","","","","","","feedback_test","",""
"","","","","","psychophysics","160","385049","0.0-9.0-0.0-0.0-0.0-0.25","605","","arrowright","","","","","","","","","","","","","key","arrowright","8.334554973821806","853.3333333333334","529.3333333333334","arrowright","true","../../test_img/22.png","自我","matching_task","朋友","[""<img src=\""../../test_img/26.png\"" width=150 style=\""vertical-align:middle\"">---生人"",""<img src=\""../../test_img/22.png\"" width=150 style=\""vertical-align:middle\"">---朋友"",""<img src=\""../../test_img/15.png\"" width=150 style=\""vertical-align:middle\"">---自我""]","","",""
"","","","","","html-keyboard-response","161","385551","0.0-9.0-0.0-0.0-0.0-1.25","null","<span style='color:GreenYellow; font-size: 70px;'>正确! </span>","null","","","","","","","","","","","","","","","","","","","","","","","","","feedback_test","",""
"","","","","","psychophysics","162","387254","0.0-9.0-0.0-0.0-0.0-0.26","701","","arrowleft","","","","","","","","","","","","","key","arrowleft","8.332512315270936","853.3333333333334","529.3333333333334","arrowright","false","../../test_img/15.png","朋友","matching_task","自我","[""<img src=\""../../test_img/26.png\"" width=150 style=\""vertical-align:middle\"">---生人"",""<img src=\""../../test_img/22.png\"" width=150 style=\""vertical-align:middle\"">---朋友"",""<img src=\""../../test_img/15.png\"" width=150 style=\""vertical-align:middle\"">---自我""]","","",""
"","","","","","html-keyboard-response","163","387760","0.0-9.0-0.0-0.0-0.0-1.26","null","<span style='color:red; font-size: 70px;'>错误! </span>","null","","","","","","","","","","","","","","","","","","","","","","","","","feedback_test","",""
"","","","","","psychophysics","164","389342","0.0-9.0-0.0-0.0-0.0-0.27","572","","arrowright","","","","","","","","","","","","","key","arrowright","8.333510638297934","853.3333333333334","529.3333333333334","arrowleft","false","../../test_img/15.png","自我","matching_task","自我","[""<img src=\""../../test_img/26.png\"" width=150 style=\""vertical-align:middle\"">---生人"",""<img src=\""../../test_img/22.png\"" width=150 style=\""vertical-align:middle\"">---朋友"",""<img src=\""../../test_img/15.png\"" width=150 style=\""vertical-align:middle\"">---自我""]","","",""
"","","","","","html-keyboard-response","165","389851","0.0-9.0-0.0-0.0-0.0-1.27","null","<span style='color:red; font-size: 70px;'>错误! </span>","null","","","","","","","","","","","","","","","","","","","","","","","","","feedback_test","",""
"","","","","","psychophysics","166","391617","0.0-9.0-0.0-0.0-0.0-0.28","765","","arrowright","","","","","","","","","","","","","key","arrowright","8.32523809523804","853.3333333333334","529.3333333333334","arrowleft","false","../../test_img/15.png","自我","matching_task","自我","[""<img src=\""../../test_img/26.png\"" width=150 style=\""vertical-align:middle\"">---生人"",""<img src=\""../../test_img/22.png\"" width=150 style=\""vertical-align:middle\"">---朋友"",""<img src=\""../../test_img/15.png\"" width=150 style=\""vertical-align:middle\"">---自我""]","","",""
"","","","","","html-keyboard-response","167","392132","0.0-9.0-0.0-0.0-0.0-1.28","null","<span style='color:red; font-size: 70px;'>错误! </span>","null","","","","","","","","","","","","","","","","","","","","","","","","","feedback_test","",""
"","","","","","psychophysics","168","393654","0.0-9.0-0.0-0.0-0.0-0.29","519","","arrowleft","","","","","","","","","","","","","key","arrowleft","8.331582417582407","853.3333333333334","529.3333333333334","arrowleft","true","../../test_img/22.png","朋友","matching_task","朋友","[""<img src=\""../../test_img/26.png\"" width=150 style=\""vertical-align:middle\"">---生人"",""<img src=\""../../test_img/22.png\"" width=150 style=\""vertical-align:middle\"">---朋友"",""<img src=\""../../test_img/15.png\"" width=150 style=\""vertical-align:middle\"">---自我""]","","",""
"","","","","","html-keyboard-response","169","394165","0.0-9.0-0.0-0.0-0.0-1.29","null","<span style='color:GreenYellow; font-size: 70px;'>正确! </span>","null","","","","","","","","","","","","","","","","","","","","","","","","","feedback_test","",""
"","","","","","psychophysics","170","395723","0.0-9.0-0.0-0.0-0.0-0.30","554","","arrowleft","","","","","","","","","","","","","key","arrowleft","8.33387096774181","853.3333333333334","529.3333333333334","arrowleft","true","../../test_img/22.png","朋友","matching_task","朋友","[""<img src=\""../../test_img/26.png\"" width=150 style=\""vertical-align:middle\"">---生人"",""<img src=\""../../test_img/22.png\"" width=150 style=\""vertical-align:middle\"">---朋友"",""<img src=\""../../test_img/15.png\"" width=150 style=\""vertical-align:middle\"">---自我""]","","",""
"","","","","","html-keyboard-response","171","396225","0.0-9.0-0.0-0.0-0.0-1.30","null","<span style='color:GreenYellow; font-size: 70px;'>正确! </span>","null","","","","","","","","","","","","","","","","","","","","","","","","","feedback_test","",""
"","","","","","psychophysics","172","397749","0.0-9.0-0.0-0.0-0.0-0.31","522","","arrowright","","","","","","","","","","","","","key","arrowright","8.335054945055163","853.3333333333334","529.3333333333334","arrowright","true","../../test_img/26.png","朋友","matching_task","生人","[""<img src=\""../../test_img/26.png\"" width=150 style=\""vertical-align:middle\"">---生人"",""<img src=\""../../test_img/22.png\"" width=150 style=\""vertical-align:middle\"">---朋友"",""<img src=\""../../test_img/15.png\"" width=150 style=\""vertical-align:middle\"">---自我""]","","",""
"","","","","","html-keyboard-response","173","398260","0.0-9.0-0.0-0.0-0.0-1.31","null","<span style='color:GreenYellow; font-size: 70px;'>正确! </span>","null","","","","","","","","","","","","","","","","","","","","","","","","","feedback_test","",""
"","","","","","psychophysics","174","399815","0.0-9.0-0.0-0.0-0.0-0.32","554","","arrowright","","","","","","","","","","","","","key","arrowright","8.334054054053992","853.3333333333334","529.3333333333334","arrowright","true","../../test_img/15.png","生人","matching_task","自我","[""<img src=\""../../test_img/26.png\"" width=150 style=\""vertical-align:middle\"">---生人"",""<img src=\""../../test_img/22.png\"" width=150 style=\""vertical-align:middle\"">---朋友"",""<img src=\""../../test_img/15.png\"" width=150 style=\""vertical-align:middle\"">---自我""]","","",""
"","","","","","html-keyboard-response","175","400321","0.0-9.0-0.0-0.0-0.0-1.32","null","<span style='color:GreenYellow; font-size: 70px;'>正确! </span>","null","","","","","","","","","","","","","","","","","","","","","","","","","feedback_test","",""
"","","","","","psychophysics","176","401991","0.0-9.0-0.0-0.0-0.0-0.33","663","","arrowright","","","","","","","","","","","","","key","arrowright","8.33316582914567","853.3333333333334","529.3333333333334","arrowright","true","../../test_img/26.png","自我","matching_task","生人","[""<img src=\""../../test_img/26.png\"" width=150 style=\""vertical-align:middle\"">---生人"",""<img src=\""../../test_img/22.png\"" width=150 style=\""vertical-align:middle\"">---朋友"",""<img src=\""../../test_img/15.png\"" width=150 style=\""vertical-align:middle\"">---自我""]","","",""
"","","","","","html-keyboard-response","177","402503","0.0-9.0-0.0-0.0-0.0-1.33","null","<span style='color:GreenYellow; font-size: 70px;'>正确! </span>","null","","","","","","","","","","","","","","","","","","","","","","","","","feedback_test","",""
"","","","","","psychophysics","178","403998","0.0-9.0-0.0-0.0-0.0-0.34","487","","arrowright","","","","","","","","","","","","","key","arrowright","8.335393258427032","853.3333333333334","529.3333333333334","arrowright","true","../../test_img/22.png","生人","matching_task","朋友","[""<img src=\""../../test_img/26.png\"" width=150 style=\""vertical-align:middle\"">---生人"",""<img src=\""../../test_img/22.png\"" width=150 style=\""vertical-align:middle\"">---朋友"",""<img src=\""../../test_img/15.png\"" width=150 style=\""vertical-align:middle\"">---自我""]","","",""
"","","","","","html-keyboard-response","179","404504","0.0-9.0-0.0-0.0-0.0-1.34","null","<span style='color:GreenYellow; font-size: 70px;'>正确! </span>","null","","","","","","","","","","","","","","","","","","","","","","","","","feedback_test","",""
"","","","","","psychophysics","180","406046","0.0-9.0-0.0-0.0-0.0-0.35","538","","arrowleft","","","","","","","","","","","","","key","arrowleft","8.333695652173724","853.3333333333334","529.3333333333334","arrowleft","true","../../test_img/26.png","生人","matching_task","生人","[""<img src=\""../../test_img/26.png\"" width=150 style=\""vertical-align:middle\"">---生人"",""<img src=\""../../test_img/22.png\"" width=150 style=\""vertical-align:middle\"">---朋友"",""<img src=\""../../test_img/15.png\"" width=150 style=\""vertical-align:middle\"">---自我""]","","",""
"","","","","","html-keyboard-response","181","406548","0.0-9.0-0.0-0.0-0.0-1.35","null","<span style='color:GreenYellow; font-size: 70px;'>正确! </span>","null","","","","","","","","","","","","","","","","","","","","","","","","","feedback_test","",""
"","","","","","psychophysics","182","408156","0.0-9.0-0.0-0.0-0.0-0.36","605","","arrowright","","","","","","","","","","","","","key","arrowright","8.333333333333334","853.3333333333334","529.3333333333334","arrowright","true","../../test_img/15.png","生人","matching_task","自我","[""<img src=\""../../test_img/26.png\"" width=150 style=\""vertical-align:middle\"">---生人"",""<img src=\""../../test_img/22.png\"" width=150 style=\""vertical-align:middle\"">---朋友"",""<img src=\""../../test_img/15.png\"" width=150 style=\""vertical-align:middle\"">---自我""]","","",""
"","","","","","html-keyboard-response","183","408661","0.0-9.0-0.0-0.0-0.0-1.36","null","<span style='color:GreenYellow; font-size: 70px;'>正确! </span>","null","","","","","","","","","","","","","","","","","","","","","","","","","feedback_test","",""
"","","","","","psychophysics","184","410456","0.0-9.0-0.0-0.0-0.0-0.37","786","","arrowright","","","","","","","","","","","","","key","arrowright","8.333177570093403","853.3333333333334","529.3333333333334","arrowleft","false","../../test_img/26.png","生人","matching_task","生人","[""<img src=\""../../test_img/26.png\"" width=150 style=\""vertical-align:middle\"">---生人"",""<img src=\""../../test_img/22.png\"" width=150 style=\""vertical-align:middle\"">---朋友"",""<img src=\""../../test_img/15.png\"" width=150 style=\""vertical-align:middle\"">---自我""]","","",""
"","","","","","html-keyboard-response","185","410967","0.0-9.0-0.0-0.0-0.0-1.37","null","<span style='color:red; font-size: 70px;'>错误! </span>","null","","","","","","","","","","","","","","","","","","","","","","","","","feedback_test","",""
"","","","","","psychophysics","186","412633","0.0-9.0-0.0-0.0-0.0-0.38","664","","arrowright","","","","","","","","","","","","","key","arrowright","8.326767676767735","853.3333333333334","529.3333333333334","arrowright","true","../../test_img/22.png","生人","matching_task","朋友","[""<img src=\""../../test_img/26.png\"" width=150 style=\""vertical-align:middle\"">---生人"",""<img src=\""../../test_img/22.png\"" width=150 style=\""vertical-align:middle\"">---朋友"",""<img src=\""../../test_img/15.png\"" width=150 style=\""vertical-align:middle\"">---自我""]","","",""
"","","","","","html-keyboard-response","187","413145","0.0-9.0-0.0-0.0-0.0-1.38","null","<span style='color:GreenYellow; font-size: 70px;'>正确! </span>","null","","","","","","","","","","","","","","","","","","","","","","","","","feedback_test","",""
"","","","","","psychophysics","188","414813","0.0-9.0-0.0-0.0-0.0-0.39","661","","arrowleft","","","","","","","","","","","","","key","arrowleft","8.333668341708659","853.3333333333334","529.3333333333334","arrowleft","true","../../test_img/22.png","朋友","matching_task","朋友","[""<img src=\""../../test_img/26.png\"" width=150 style=\""vertical-align:middle\"">---生人"",""<img src=\""../../test_img/22.png\"" width=150 style=\""vertical-align:middle\"">---朋友"",""<img src=\""../../test_img/15.png\"" width=150 style=\""vertical-align:middle\"">---自我""]","","",""
"","","","","","html-keyboard-response","189","415327","0.0-9.0-0.0-0.0-0.0-1.39","null","<span style='color:GreenYellow; font-size: 70px;'>正确! </span>","null","","","","","","","","","","","","","","","","","","","","","","","","","feedback_test","",""
"","","","","","psychophysics","190","417147","0.0-9.0-0.0-0.0-0.0-0.40","812","","arrowright","","","","","","","","","","","","","key","arrowright","8.334101382488479","853.3333333333334","529.3333333333334","arrowright","true","../../test_img/26.png","自我","matching_task","生人","[""<img src=\""../../test_img/26.png\"" width=150 style=\""vertical-align:middle\"">---生人"",""<img src=\""../../test_img/22.png\"" width=150 style=\""vertical-align:middle\"">---朋友"",""<img src=\""../../test_img/15.png\"" width=150 style=\""vertical-align:middle\"">---自我""]","","",""
"","","","","","html-keyboard-response","191","417651","0.0-9.0-0.0-0.0-0.0-1.40","null","<span style='color:GreenYellow; font-size: 70px;'>正确! </span>","null","","","","","","","","","","","","","","","","","","","","","","","","","feedback_test","",""
"","","","","","psychophysics","192","419417","0.0-9.0-0.0-0.0-0.0-0.41","762","","arrowleft","","","","","","","","","","","","","key","arrowleft","8.332857142857254","853.3333333333334","529.3333333333334","arrowleft","true","../../test_img/22.png","朋友","matching_task","朋友","[""<img src=\""../../test_img/26.png\"" width=150 style=\""vertical-align:middle\"">---生人"",""<img src=\""../../test_img/22.png\"" width=150 style=\""vertical-align:middle\"">---朋友"",""<img src=\""../../test_img/15.png\"" width=150 style=\""vertical-align:middle\"">---自我""]","","",""
"","","","","","html-keyboard-response","193","419934","0.0-9.0-0.0-0.0-0.0-1.41","null","<span style='color:GreenYellow; font-size: 70px;'>正确! </span>","null","","","","","","","","","","","","","","","","","","","","","","","","","feedback_test","",""
"","","","","","psychophysics","194","421408","0.0-9.0-0.0-0.0-0.0-0.42","473","","arrowright","","","","","","","","","","","","","key","arrowright","8.335428571428638","853.3333333333334","529.3333333333334","arrowleft","false","../../test_img/15.png","自我","matching_task","自我","[""<img src=\""../../test_img/26.png\"" width=150 style=\""vertical-align:middle\"">---生人"",""<img src=\""../../test_img/22.png\"" width=150 style=\""vertical-align:middle\"">---朋友"",""<img src=\""../../test_img/15.png\"" width=150 style=\""vertical-align:middle\"">---自我""]","","",""
"","","","","","html-keyboard-response","195","421918","0.0-9.0-0.0-0.0-0.0-1.42","null","<span style='color:red; font-size: 70px;'>错误! </span>","null","","","","","","","","","","","","","","","","","","","","","","","","","feedback_test","",""
"","","","","","psychophysics","196","423476","0.0-9.0-0.0-0.0-0.0-0.43","556","","arrowleft","","","","","","","","","","","","","key","arrowleft","8.334594594594721","853.3333333333334","529.3333333333334","arrowleft","true","../../test_img/26.png","生人","matching_task","生人","[""<img src=\""../../test_img/26.png\"" width=150 style=\""vertical-align:middle\"">---生人"",""<img src=\""../../test_img/22.png\"" width=150 style=\""vertical-align:middle\"">---朋友"",""<img src=\""../../test_img/15.png\"" width=150 style=\""vertical-align:middle\"">---自我""]","","",""
"","","","","","html-keyboard-response","197","423991","0.0-9.0-0.0-0.0-0.0-1.43","null","<span style='color:GreenYellow; font-size: 70px;'>正确! </span>","null","","","","","","","","","","","","","","","","","","","","","","","","","feedback_test","",""
"","","","","","psychophysics","198","425690","0.0-9.0-0.0-0.0-0.0-0.44","697","","arrowright","","","","","","","","","","","","","key","arrowright","8.32821782178212","853.3333333333334","529.3333333333334","arrowright","true","../../test_img/22.png","自我","matching_task","朋友","[""<img src=\""../../test_img/26.png\"" width=150 style=\""vertical-align:middle\"">---生人"",""<img src=\""../../test_img/22.png\"" width=150 style=\""vertical-align:middle\"">---朋友"",""<img src=\""../../test_img/15.png\"" width=150 style=\""vertical-align:middle\"">---自我""]","","",""
"","","","","","html-keyboard-response","199","426204","0.0-9.0-0.0-0.0-0.0-1.44","null","<span style='color:GreenYellow; font-size: 70px;'>正确! </span>","null","","","","","","","","","","","","","","","","","","","","","","","","","feedback_test","",""
"","","","","","psychophysics","200","427867","0.0-9.0-0.0-0.0-0.0-0.45","658","","arrowright","","","","","","","","","","","","","key","arrowright","8.332323232323173","853.3333333333334","529.3333333333334","arrowright","true","../../test_img/26.png","朋友","matching_task","生人","[""<img src=\""../../test_img/26.png\"" width=150 style=\""vertical-align:middle\"">---生人"",""<img src=\""../../test_img/22.png\"" width=150 style=\""vertical-align:middle\"">---朋友"",""<img src=\""../../test_img/15.png\"" width=150 style=\""vertical-align:middle\"">---自我""]","","",""
"","","","","","html-keyboard-response","201","428370","0.0-9.0-0.0-0.0-0.0-1.45","null","<span style='color:GreenYellow; font-size: 70px;'>正确! </span>","null","","","","","","","","","","","","","","","","","","","","","","","","","feedback_test","",""
"","","","","","psychophysics","202","429882","0.0-9.0-0.0-0.0-0.0-0.46","506","","arrowright","","","","","","","","","","","","","key","arrowright","8.334999999999935","853.3333333333334","529.3333333333334","arrowleft","false","../../test_img/15.png","自我","matching_task","自我","[""<img src=\""../../test_img/26.png\"" width=150 style=\""vertical-align:middle\"">---生人"",""<img src=\""../../test_img/22.png\"" width=150 style=\""vertical-align:middle\"">---朋友"",""<img src=\""../../test_img/15.png\"" width=150 style=\""vertical-align:middle\"">---自我""]","","",""
"","","","","","html-keyboard-response","203","430385","0.0-9.0-0.0-0.0-0.0-1.46","null","<span style='color:red; font-size: 70px;'>错误! </span>","null","","","","","","","","","","","","","","","","","","","","","","","","","feedback_test","",""
"","","","","","psychophysics","204","432284","0.0-9.0-0.0-0.0-0.0-0.47","892","","arrowright","","","","","","","","","","","","","key","arrowright","8.33451327433618","853.3333333333334","529.3333333333334","arrowright","true","../../test_img/15.png","朋友","matching_task","自我","[""<img src=\""../../test_img/26.png\"" width=150 style=\""vertical-align:middle\"">---生人"",""<img src=\""../../test_img/22.png\"" width=150 style=\""vertical-align:middle\"">---朋友"",""<img src=\""../../test_img/15.png\"" width=150 style=\""vertical-align:middle\"">---自我""]","","",""
"","","","","","html-keyboard-response","205","432791","0.0-9.0-0.0-0.0-0.0-1.47","null","<span style='color:GreenYellow; font-size: 70px;'>正确! </span>","null","","","","","","","","","","","","","","","","","","","","","","","","","feedback_test","",""
"","","","","","psychophysics","206","434317","0.0-9.0-0.0-0.0-0.0-0.48","524","","arrowleft","","","","","","","","","","","","","key","arrowleft","8.331395604395675","853.3333333333334","529.3333333333334","arrowleft","true","../../test_img/26.png","生人","matching_task","生人","[""<img src=\""../../test_img/26.png\"" width=150 style=\""vertical-align:middle\"">---生人"",""<img src=\""../../test_img/22.png\"" width=150 style=\""vertical-align:middle\"">---朋友"",""<img src=\""../../test_img/15.png\"" width=150 style=\""vertical-align:middle\"">---自我""]","","",""
"","","","","","html-keyboard-response","207","434820","0.0-9.0-0.0-0.0-0.0-1.48","null","<span style='color:GreenYellow; font-size: 70px;'>正确! </span>","null","","","","","","","","","","","","","","","","","","","","","","","","","feedback_test","",""
"","","","","","psychophysics","208","436340","0.0-9.0-0.0-0.0-0.0-0.49","515","","arrowright","","","","","","","","","","","","","key","arrowright","8.332596685082937","853.3333333333334","529.3333333333334","arrowright","true","../../test_img/22.png","生人","matching_task","朋友","[""<img src=\""../../test_img/26.png\"" width=150 style=\""vertical-align:middle\"">---生人"",""<img src=\""../../test_img/22.png\"" width=150 style=\""vertical-align:middle\"">---朋友"",""<img src=\""../../test_img/15.png\"" width=150 style=\""vertical-align:middle\"">---自我""]","","",""
"","","","","","html-keyboard-response","209","436854","0.0-9.0-0.0-0.0-0.0-1.49","null","<span style='color:GreenYellow; font-size: 70px;'>正确! </span>","null","","","","","","","","","","","","","","","","","","","","","","","","","feedback_test","",""
"","","","","","psychophysics","210","438409","0.0-9.0-0.0-0.0-0.0-0.50","552","","arrowright","","","","","","","","","","","","","key","arrowright","8.33172043010759","853.3333333333334","529.3333333333334","arrowright","true","../../test_img/26.png","自我","matching_task","生人","[""<img src=\""../../test_img/26.png\"" width=150 style=\""vertical-align:middle\"">---生人"",""<img src=\""../../test_img/22.png\"" width=150 style=\""vertical-align:middle\"">---朋友"",""<img src=\""../../test_img/15.png\"" width=150 style=\""vertical-align:middle\"">---自我""]","","",""
"","","","","","html-keyboard-response","211","438922","0.0-9.0-0.0-0.0-0.0-1.50","null","<span style='color:GreenYellow; font-size: 70px;'>正确! </span>","null","","","","","","","","","","","","","","","","","","","","","","","","","feedback_test","",""
"","","","","","psychophysics","212","440564","0.0-9.0-0.0-0.0-0.0-0.51","638","","arrowleft","","","","","","","","","","","","","key","arrowleft","8.333673469387577","853.3333333333334","529.3333333333334","arrowleft","true","../../test_img/26.png","生人","matching_task","生人","[""<img src=\""../../test_img/26.png\"" width=150 style=\""vertical-align:middle\"">---生人"",""<img src=\""../../test_img/22.png\"" width=150 style=\""vertical-align:middle\"">---朋友"",""<img src=\""../../test_img/15.png\"" width=150 style=\""vertical-align:middle\"">---自我""]","","",""
"","","","","","html-keyboard-response","213","441075","0.0-9.0-0.0-0.0-0.0-1.51","null","<span style='color:GreenYellow; font-size: 70px;'>正确! </span>","null","","","","","","","","","","","","","","","","","","","","","","","","","feedback_test","",""
"","","","","","psychophysics","214","442632","0.0-9.0-0.0-0.0-0.0-0.52","555","","arrowright","","","","","","","","","","","","","key","arrowright","8.332972972972847","853.3333333333334","529.3333333333334","arrowright","true","../../test_img/15.png","生人","matching_task","自我","[""<img src=\""../../test_img/26.png\"" width=150 style=\""vertical-align:middle\"">---生人"",""<img src=\""../../test_img/22.png\"" width=150 style=\""vertical-align:middle\"">---朋友"",""<img src=\""../../test_img/15.png\"" width=150 style=\""vertical-align:middle\"">---自我""]","","",""
"","","","","","html-keyboard-response","215","443136","0.0-9.0-0.0-0.0-0.0-1.52","null","<span style='color:GreenYellow; font-size: 70px;'>正确! </span>","null","","","","","","","","","","","","","","","","","","","","","","","","","feedback_test","",""
"","","","","","psychophysics","216","444826","0.0-9.0-0.0-0.0-0.0-0.53","683","","arrowright","","","","","","","","","","","","","key","arrowright","8.333168316831914","853.3333333333334","529.3333333333334","arrowleft","false","../../test_img/15.png","自我","matching_task","自我","[""<img src=\""../../test_img/26.png\"" width=150 style=\""vertical-align:middle\"">---生人"",""<img src=\""../../test_img/22.png\"" width=150 style=\""vertical-align:middle\"">---朋友"",""<img src=\""../../test_img/15.png\"" width=150 style=\""vertical-align:middle\"">---自我""]","","",""
"","","","","","html-keyboard-response","217","445326","0.0-9.0-0.0-0.0-0.0-1.53","null","<span style='color:red; font-size: 70px;'>错误! </span>","null","","","","","","","","","","","","","","","","","","","","","","","","","feedback_test","",""
"","","","","","psychophysics","218","446930","0.0-9.0-0.0-0.0-0.0-0.54","595","","arrowleft","","","","","","","","","","","","","key","arrowleft","8.332984293193595","853.3333333333334","529.3333333333334","arrowleft","true","../../test_img/22.png","朋友","matching_task","朋友","[""<img src=\""../../test_img/26.png\"" width=150 style=\""vertical-align:middle\"">---生人"",""<img src=\""../../test_img/22.png\"" width=150 style=\""vertical-align:middle\"">---朋友"",""<img src=\""../../test_img/15.png\"" width=150 style=\""vertical-align:middle\"">---自我""]","","",""
"","","","","","html-keyboard-response","219","447442","0.0-9.0-0.0-0.0-0.0-1.54","null","<span style='color:GreenYellow; font-size: 70px;'>正确! </span>","null","","","","","","","","","","","","","","","","","","","","","","","","","feedback_test","",""
"","","","","","psychophysics","220","448963","0.0-9.0-0.0-0.0-0.0-0.55","519","","arrowright","","","","","","","","","","","","","key","arrowright","8.334254143646408","853.3333333333334","529.3333333333334","arrowleft","false","../../test_img/15.png","自我","matching_task","自我","[""<img src=\""../../test_img/26.png\"" width=150 style=\""vertical-align:middle\"">---生人"",""<img src=\""../../test_img/22.png\"" width=150 style=\""vertical-align:middle\"">---朋友"",""<img src=\""../../test_img/15.png\"" width=150 style=\""vertical-align:middle\"">---自我""]","","",""
"","","","","","html-keyboard-response","221","449468","0.0-9.0-0.0-0.0-0.0-1.55","null","<span style='color:red; font-size: 70px;'>错误! </span>","null","","","","","","","","","","","","","","","","","","","","","","","","","feedback_test","",""
"","","","","","psychophysics","222","451082","0.0-9.0-0.0-0.0-0.0-0.56","606","","arrowright","","","","","","","","","","","","","key","arrowright","8.334895833333272","853.3333333333334","529.3333333333334","arrowright","true","../../test_img/15.png","朋友","matching_task","自我","[""<img src=\""../../test_img/26.png\"" width=150 style=\""vertical-align:middle\"">---生人"",""<img src=\""../../test_img/22.png\"" width=150 style=\""vertical-align:middle\"">---朋友"",""<img src=\""../../test_img/15.png\"" width=150 style=\""vertical-align:middle\"">---自我""]","","",""
"","","","","","html-keyboard-response","223","451593","0.0-9.0-0.0-0.0-0.0-1.56","null","<span style='color:GreenYellow; font-size: 70px;'>正确! </span>","null","","","","","","","","","","","","","","","","","","","","","","","","","feedback_test","",""
"","","","","","psychophysics","224","453137","0.0-9.0-0.0-0.0-0.0-0.57","537","","arrowleft","","","","","","","","","","","","","key","arrowleft","8.333695652173724","853.3333333333334","529.3333333333334","arrowright","false","../../test_img/26.png","朋友","matching_task","生人","[""<img src=\""../../test_img/26.png\"" width=150 style=\""vertical-align:middle\"">---生人"",""<img src=\""../../test_img/22.png\"" width=150 style=\""vertical-align:middle\"">---朋友"",""<img src=\""../../test_img/15.png\"" width=150 style=\""vertical-align:middle\"">---自我""]","","",""
"","","","","","html-keyboard-response","225","453642","0.0-9.0-0.0-0.0-0.0-1.57","null","<span style='color:red; font-size: 70px;'>错误! </span>","null","","","","","","","","","","","","","","","","","","","","","","","","","feedback_test","",""
"","","","","","psychophysics","226","455346","0.0-9.0-0.0-0.0-0.0-0.58","700","","arrowleft","","","","","","","","","","","","","key","arrowleft","8.33349753694587","853.3333333333334","529.3333333333334","arrowleft","true","../../test_img/22.png","朋友","matching_task","朋友","[""<img src=\""../../test_img/26.png\"" width=150 style=\""vertical-align:middle\"">---生人"",""<img src=\""../../test_img/22.png\"" width=150 style=\""vertical-align:middle\"">---朋友"",""<img src=\""../../test_img/15.png\"" width=150 style=\""vertical-align:middle\"">---自我""]","","",""
"","","","","","html-keyboard-response","227","455852","0.0-9.0-0.0-0.0-0.0-1.58","null","<span style='color:GreenYellow; font-size: 70px;'>正确! </span>","null","","","","","","","","","","","","","","","","","","","","","","","","","feedback_test","",""
"","","","","","psychophysics","228","457576","0.0-9.0-0.0-0.0-0.0-0.59","718","","arrowleft","","","","","","","","","","","","","key","arrowleft","8.333495145630842","853.3333333333334","529.3333333333334","arrowright","false","../../test_img/22.png","自我","matching_task","朋友","[""<img src=\""../../test_img/26.png\"" width=150 style=\""vertical-align:middle\"">---生人"",""<img src=\""../../test_img/22.png\"" width=150 style=\""vertical-align:middle\"">---朋友"",""<img src=\""../../test_img/15.png\"" width=150 style=\""vertical-align:middle\"">---自我""]","","",""
"","","","","","html-keyboard-response","229","458090","0.0-9.0-0.0-0.0-0.0-1.59","null","<span style='color:red; font-size: 70px;'>错误! </span>","null","","","","","","","","","","","","","","","","","","","","","","","","","feedback_test","",""
"","","","","","psychophysics","230","459630","0.0-9.0-0.0-0.0-0.0-0.60","538","","arrowleft","","","","","","","","","","","","","key","arrowleft","8.332608695652237","853.3333333333334","529.3333333333334","arrowleft","true","../../test_img/26.png","生人","matching_task","生人","[""<img src=\""../../test_img/26.png\"" width=150 style=\""vertical-align:middle\"">---生人"",""<img src=\""../../test_img/22.png\"" width=150 style=\""vertical-align:middle\"">---朋友"",""<img src=\""../../test_img/15.png\"" width=150 style=\""vertical-align:middle\"">---自我""]","","",""
"","","","","","html-keyboard-response","231","460136","0.0-9.0-0.0-0.0-0.0-1.60","null","<span style='color:GreenYellow; font-size: 70px;'>正确! </span>","null","","","","","","","","","","","","","","","","","","","","","","","","","feedback_test","",""
"","","","","","psychophysics","232","461844","0.0-9.0-0.0-0.0-0.0-0.61","706","","arrowright","","","","","","","","","","","","","key","arrowright","8.332352941176413","853.3333333333334","529.3333333333334","arrowright","true","../../test_img/26.png","自我","matching_task","生人","[""<img src=\""../../test_img/26.png\"" width=150 style=\""vertical-align:middle\"">---生人"",""<img src=\""../../test_img/22.png\"" width=150 style=\""vertical-align:middle\"">---朋友"",""<img src=\""../../test_img/15.png\"" width=150 style=\""vertical-align:middle\"">---自我""]","","",""
"","","","","","html-keyboard-response","233","462355","0.0-9.0-0.0-0.0-0.0-1.61","null","<span style='color:GreenYellow; font-size: 70px;'>正确! </span>","null","","","","","","","","","","","","","","","","","","","","","","","","","feedback_test","",""
"","","","","","psychophysics","234","463913","0.0-9.0-0.0-0.0-0.0-0.62","555","","arrowright","","","","","","","","","","","","","key","arrowright","8.333333333333334","853.3333333333334","529.3333333333334","arrowleft","false","../../test_img/15.png","自我","matching_task","自我","[""<img src=\""../../test_img/26.png\"" width=150 style=\""vertical-align:middle\"">---生人"",""<img src=\""../../test_img/22.png\"" width=150 style=\""vertical-align:middle\"">---朋友"",""<img src=\""../../test_img/15.png\"" width=150 style=\""vertical-align:middle\"">---自我""]","","",""
"","","","","","html-keyboard-response","235","464421","0.0-9.0-0.0-0.0-0.0-1.62","null","<span style='color:red; font-size: 70px;'>错误! </span>","null","","","","","","","","","","","","","","","","","","","","","","","","","feedback_test","",""
"","","","","","psychophysics","236","465889","0.0-9.0-0.0-0.0-0.0-0.63","465","","arrowleft","","","","","","","","","","","","","key","arrowleft","8.331508571428712","853.3333333333334","529.3333333333334","arrowleft","true","../../test_img/15.png","自我","matching_task","自我","[""<img src=\""../../test_img/26.png\"" width=150 style=\""vertical-align:middle\"">---生人"",""<img src=\""../../test_img/22.png\"" width=150 style=\""vertical-align:middle\"">---朋友"",""<img src=\""../../test_img/15.png\"" width=150 style=\""vertical-align:middle\"">---自我""]","","",""
"","","","","","html-keyboard-response","237","466396","0.0-9.0-0.0-0.0-0.0-1.63","null","<span style='color:GreenYellow; font-size: 70px;'>正确! </span>","null","","","","","","","","","","","","","","","","","","","","","","","","","feedback_test","",""
"","","","","","psychophysics","238","468028","0.0-9.0-0.0-0.0-0.0-0.64","630","","arrowright","","","","","","","","","","","","","key","arrowright","8.332307692307632","853.3333333333334","529.3333333333334","arrowleft","false","../../test_img/26.png","生人","matching_task","生人","[""<img src=\""../../test_img/26.png\"" width=150 style=\""vertical-align:middle\"">---生人"",""<img src=\""../../test_img/22.png\"" width=150 style=\""vertical-align:middle\"">---朋友"",""<img src=\""../../test_img/15.png\"" width=150 style=\""vertical-align:middle\"">---自我""]","","",""
"","","","","","html-keyboard-response","239","468536","0.0-9.0-0.0-0.0-0.0-1.64","null","<span style='color:red; font-size: 70px;'>错误! </span>","null","","","","","","","","","","","","","","","","","","","","","","","","","feedback_test","",""
"","","","","","psychophysics","240","470288","0.0-9.0-0.0-0.0-0.0-0.65","748","","arrowleft","","","","","","","","","","","","","key","arrowleft","8.331645933014139","853.3333333333334","529.3333333333334","arrowleft","true","../../test_img/22.png","朋友","matching_task","朋友","[""<img src=\""../../test_img/26.png\"" width=150 style=\""vertical-align:middle\"">---生人"",""<img src=\""../../test_img/22.png\"" width=150 style=\""vertical-align:middle\"">---朋友"",""<img src=\""../../test_img/15.png\"" width=150 style=\""vertical-align:middle\"">---自我""]","","",""
"","","","","","html-keyboard-response","241","470792","0.0-9.0-0.0-0.0-0.0-1.65","null","<span style='color:GreenYellow; font-size: 70px;'>正确! </span>","null","","","","","","","","","","","","","","","","","","","","","","","","","feedback_test","",""
"","","","","","psychophysics","242","472381","0.0-9.0-0.0-0.0-0.0-0.66","581","","arrowright","","","","","","","","","","","","","key","arrowright","8.333862433862619","853.3333333333334","529.3333333333334","arrowright","true","../../test_img/26.png","朋友","matching_task","生人","[""<img src=\""../../test_img/26.png\"" width=150 style=\""vertical-align:middle\"">---生人"",""<img src=\""../../test_img/22.png\"" width=150 style=\""vertical-align:middle\"">---朋友"",""<img src=\""../../test_img/15.png\"" width=150 style=\""vertical-align:middle\"">---自我""]","","",""
"","","","","","html-keyboard-response","243","472882","0.0-9.0-0.0-0.0-0.0-1.66","null","<span style='color:GreenYellow; font-size: 70px;'>正确! </span>","null","","","","","","","","","","","","","","","","","","","","","","","","","feedback_test","",""
"","","","","","psychophysics","244","474554","0.0-9.0-0.0-0.0-0.0-0.67","670","","arrowleft","","","","","","","","","","","","","key","arrowleft","8.33316582914567","853.3333333333334","529.3333333333334","arrowright","false","../../test_img/15.png","生人","matching_task","自我","[""<img src=\""../../test_img/26.png\"" width=150 style=\""vertical-align:middle\"">---生人"",""<img src=\""../../test_img/22.png\"" width=150 style=\""vertical-align:middle\"">---朋友"",""<img src=\""../../test_img/15.png\"" width=150 style=\""vertical-align:middle\"">---自我""]","","",""
"","","","","","html-keyboard-response","245","475063","0.0-9.0-0.0-0.0-0.0-1.67","null","<span style='color:red; font-size: 70px;'>错误! </span>","null","","","","","","","","","","","","","","","","","","","","","","","","","feedback_test","",""
"","","","","","psychophysics","246","476686","0.0-9.0-0.0-0.0-0.0-0.68","620","","arrowleft","","","","","","","","","","","","","key","arrowleft","8.333505154639235","853.3333333333334","529.3333333333334","arrowleft","true","../../test_img/22.png","朋友","matching_task","朋友","[""<img src=\""../../test_img/26.png\"" width=150 style=\""vertical-align:middle\"">---生人"",""<img src=\""../../test_img/22.png\"" width=150 style=\""vertical-align:middle\"">---朋友"",""<img src=\""../../test_img/15.png\"" width=150 style=\""vertical-align:middle\"">---自我""]","","",""
"","","","","","html-keyboard-response","247","477196","0.0-9.0-0.0-0.0-0.0-1.68","null","<span style='color:GreenYellow; font-size: 70px;'>正确! </span>","null","","","","","","","","","","","","","","","","","","","","","","","","","feedback_test","",""
"","","","","","psychophysics","248","478796","0.0-9.0-0.0-0.0-0.0-0.69","598","","arrowright","","","","","","","","","","","","","key","arrowright","8.332010471204136","853.3333333333334","529.3333333333334","arrowright","true","../../test_img/15.png","朋友","matching_task","自我","[""<img src=\""../../test_img/26.png\"" width=150 style=\""vertical-align:middle\"">---生人"",""<img src=\""../../test_img/22.png\"" width=150 style=\""vertical-align:middle\"">---朋友"",""<img src=\""../../test_img/15.png\"" width=150 style=\""vertical-align:middle\"">---自我""]","","",""
"","","","","","html-keyboard-response","249","479303","0.0-9.0-0.0-0.0-0.0-1.69","null","<span style='color:GreenYellow; font-size: 70px;'>正确! </span>","null","","","","","","","","","","","","","","","","","","","","","","","","","feedback_test","",""
