"success","timeout","failed_images","failed_audio","failed_video","trial_type","trial_index","time_elapsed","internal_node_id","rt","stimulus","response","view_history","phase","stage","shape","subj_idx","TaskRelevance","CognitiveLoad","isMatch","Identity","display_label","nBack_shape","nBack_color","nBack_label","sequence","condition_type","correct_response","correct"
"true","false","[]","[]","[]","preload","0","11","0.0-0.0","","","","","","","","","","","","","","","","","","","",""
"","","","","","html-keyboard-response","1","57015","0.0-1.0","57003","
        <p>您好，欢迎参加本实验。</p>
        <p>本实验由4个按键任务组成, 预计用时50分钟</p>
        <p>请您根据指导语完成任务。</p>
        <p><div style = ""color: green""><按任意键至下页></div> </p>
    "," ","","","","","","","","","","","","","","","","",""
"","","","","","instructions","2","82470","0.0-2.0-0.0","25454","","","[{""page_index"":0,""viewing_time"":7961},{""page_index"":1,""viewing_time"":11787},{""page_index"":2,""viewing_time"":1218},{""page_index"":3,""viewing_time"":4489}]","","","","","","","","","","","","","","","",""
"","","","","","html-keyboard-response","3","82953","0.0-2.0-1.0-0.0-0.0","null","<div style=""font-size: 60px;"">+</div>","null","","","","","","","","","","","","","","","","",""
"","","","","","image-keyboard-response","4","83465","0.0-2.0-1.0-0.0-1.0","null","../img/green_triangle.png","null","","prac","shape","../img/green_triangle.png","","","","","","","","","","","","",""
"","","","","","image-keyboard-response","5","84491","0.0-2.0-1.0-0.0-2.0","null","../img/red_triangle.png","null","","prac","shape","../img/red_triangle.png","","","","","","","","","","","","",""
"","","","","","image-keyboard-response","6","85521","0.0-2.0-1.0-0.0-3.0","null","../img/red_circle.png","null","","prac","shape","../img/red_circle.png","","","","","","","","","","","","",""
"","","","","","html-keyboard-response","7","87486","0.0-2.0-1.0-0.0-4.0","1464","<div style=""font-size: 60px;"">自我</div>","j","","prac","response","","100","TaskRelevant","2","false","生人","自我","../img/red_triangle.png","","生人","../img/green_triangle.png,../img/red_triangle.png,../img/red_circle.png","{""label_type"":""生人"",""is_match"":false,""count"":4,""colorPool"":[""red"",""green"",""green"",""red""]}","j","true"
"","","","","","html-keyboard-response","8","87793","0.0-2.0-1.0-0.0-5.0","null","<span style='color:GreenYellow; font-size: 70px;'>正确! </span>","null","","","feedback","","","","","","","","","","","","","",""
"","","","","","html-keyboard-response","9","88150","0.0-2.0-1.0-0.0-6.0","null","<div style=""font-size: 60px;"">+</div>","null","","","","","","","","","","","","","","","","",""
"","","","","","image-keyboard-response","10","88651","0.0-2.0-1.0-0.0-7.0","null","../img/red_triangle.png","null","","prac","shape","../img/red_triangle.png","","","","","","","","","","","","",""
"","","","","","image-keyboard-response","11","89679","0.0-2.0-1.0-0.0-8.0","null","../img/red_triangle.png","null","","prac","shape","../img/red_triangle.png","","","","","","","","","","","","",""
"","","","","","image-keyboard-response","12","90689","0.0-2.0-1.0-0.0-9.0","null","../img/green_circle.png","null","","prac","shape","../img/green_circle.png","","","","","","","","","","","","",""
"","","","","","html-keyboard-response","13","92595","0.0-2.0-1.0-0.0-10.0","1404","<div style=""font-size: 60px;"">生人</div>","f","","prac","response","","100","TaskRelevant","2","true","生人","生人","../img/red_triangle.png","","生人","../img/red_triangle.png,../img/red_triangle.png,../img/green_circle.png","{""label_type"":""生人"",""is_match"":true,""count"":4,""colorPool"":[""red"",""red"",""green"",""green""]}","f","true"
"","","","","","html-keyboard-response","14","92904","0.0-2.0-1.0-0.0-11.0","null","<span style='color:GreenYellow; font-size: 70px;'>正确! </span>","null","","","feedback","","","","","","","","","","","","","",""
"","","","","","html-keyboard-response","15","93979","0.0-2.0-1.0-0.0-12.0","null","<div style=""font-size: 60px;"">+</div>","null","","","","","","","","","","","","","","","","",""
"","","","","","image-keyboard-response","16","94490","0.0-2.0-1.0-0.0-13.0","null","../img/green_circle.png","null","","prac","shape","../img/green_circle.png","","","","","","","","","","","","",""
"","","","","","image-keyboard-response","17","95501","0.0-2.0-1.0-0.0-14.0","null","../img/green_triangle.png","null","","prac","shape","../img/green_triangle.png","","","","","","","","","","","","",""
"","","","","","image-keyboard-response","18","96527","0.0-2.0-1.0-0.0-15.0","null","../img/green_circle.png","null","","prac","shape","../img/green_circle.png","","","","","","","","","","","","",""
"","","","","","image-keyboard-response","19","97542","0.0-2.0-1.0-0.0-16.0","null","../img/red_circle.png","null","","prac","shape","../img/red_circle.png","","","","","","","","","","","","",""
"","","","","","html-keyboard-response","20","98815","0.0-2.0-1.0-0.0-17.0","771","<div style=""font-size: 60px;"">自我</div>","f","","prac","response","","100","TaskRelevant","2","true","自我","自我","../img/green_circle.png","","自我","../img/green_circle.png,../img/green_triangle.png,../img/green_circle.png,../img/red_circle.png","{""label_type"":""自我"",""is_match"":true,""count"":4,""colorPool"":[""green"",""green"",""red"",""red""]}","f","true"
"","","","","","html-keyboard-response","21","99129","0.0-2.0-1.0-0.0-18.0","null","<span style='color:GreenYellow; font-size: 70px;'>正确! </span>","null","","","feedback","","","","","","","","","","","","","",""
"","","","","","html-keyboard-response","22","99941","0.0-2.0-1.0-0.0-19.0","null","<div style=""font-size: 60px;"">+</div>","null","","","","","","","","","","","","","","","","",""
"","","","","","image-keyboard-response","23","100442","0.0-2.0-1.0-0.0-20.0","null","../img/green_triangle.png","null","","prac","shape","../img/green_triangle.png","","","","","","","","","","","","",""
"","","","","","image-keyboard-response","24","101452","0.0-2.0-1.0-0.0-21.0","null","../img/red_triangle.png","null","","prac","shape","../img/red_triangle.png","","","","","","","","","","","","",""
"","","","","","image-keyboard-response","25","102463","0.0-2.0-1.0-0.0-22.0","null","../img/green_circle.png","null","","prac","shape","../img/green_circle.png","","","","","","","","","","","","",""
"","","","","","html-keyboard-response","26","104333","0.0-2.0-1.0-0.0-23.0","1355","<div style=""font-size: 60px;"">生人</div>","f","","prac","response","","100","TaskRelevant","2","true","生人","生人","../img/red_triangle.png","","生人","../img/green_triangle.png,../img/red_triangle.png,../img/green_circle.png","{""label_type"":""生人"",""is_match"":true,""count"":4,""colorPool"":[""red"",""red"",""green"",""green""]}","f","true"
"","","","","","html-keyboard-response","27","104642","0.0-2.0-1.0-0.0-24.0","null","<span style='color:GreenYellow; font-size: 70px;'>正确! </span>","null","","","feedback","","","","","","","","","","","","","",""
"","","","","","html-keyboard-response","28","104939","0.0-2.0-1.0-0.0-25.0","null","<div style=""font-size: 60px;"">+</div>","null","","","","","","","","","","","","","","","","",""
"","","","","","image-keyboard-response","29","105454","0.0-2.0-1.0-0.0-26.0","null","../img/red_circle.png","null","","prac","shape","../img/red_circle.png","","","","","","","","","","","","",""
"","","","","","image-keyboard-response","30","106468","0.0-2.0-1.0-0.0-27.0","null","../img/green_circle.png","null","","prac","shape","../img/green_circle.png","","","","","","","","","","","","",""
"","","","","","image-keyboard-response","31","107493","0.0-2.0-1.0-0.0-28.0","null","../img/green_triangle.png","null","","prac","shape","../img/green_triangle.png","","","","","","","","","","","","",""
"","","","","","html-keyboard-response","32","109338","0.0-2.0-1.0-0.0-29.0","1344","<div style=""font-size: 60px;"">自我</div>","f","","prac","response","","100","TaskRelevant","2","true","自我","自我","../img/green_circle.png","","自我","../img/red_circle.png,../img/green_circle.png,../img/green_triangle.png","{""label_type"":""自我"",""is_match"":true,""count"":4,""colorPool"":[""green"",""green"",""red"",""red""]}","f","true"
"","","","","","html-keyboard-response","33","109643","0.0-2.0-1.0-0.0-30.0","null","<span style='color:GreenYellow; font-size: 70px;'>正确! </span>","null","","","feedback","","","","","","","","","","","","","",""
"","","","","","html-keyboard-response","34","110187","0.0-2.0-1.0-0.0-31.0","null","<div style=""font-size: 60px;"">+</div>","null","","","","","","","","","","","","","","","","",""
"","","","","","image-keyboard-response","35","110702","0.0-2.0-1.0-0.0-32.0","null","../img/red_circle.png","null","","prac","shape","../img/red_circle.png","","","","","","","","","","","","",""
"","","","","","image-keyboard-response","36","111706","0.0-2.0-1.0-0.0-33.0","null","../img/green_triangle.png","null","","prac","shape","../img/green_triangle.png","","","","","","","","","","","","",""
"","","","","","image-keyboard-response","37","112709","0.0-2.0-1.0-0.0-34.0","null","../img/green_triangle.png","null","","prac","shape","../img/green_triangle.png","","","","","","","","","","","","",""
"","","","","","html-keyboard-response","38","114217","0.0-2.0-1.0-0.0-35.0","993","<div style=""font-size: 60px;"">自我</div>","j","","prac","response","","100","TaskRelevant","2","false","生人","自我","../img/green_triangle.png","","生人","../img/red_circle.png,../img/green_triangle.png,../img/green_triangle.png","{""label_type"":""生人"",""is_match"":false,""count"":4,""colorPool"":[""red"",""green"",""green"",""red""]}","j","true"
"","","","","","html-keyboard-response","39","114519","0.0-2.0-1.0-0.0-36.0","null","<span style='color:GreenYellow; font-size: 70px;'>正确! </span>","null","","","feedback","","","","","","","","","","","","","",""
"","","","","","html-keyboard-response","40","115064","0.0-2.0-1.0-0.0-37.0","null","<div style=""font-size: 60px;"">+</div>","null","","","","","","","","","","","","","","","","",""
"","","","","","image-keyboard-response","41","115576","0.0-2.0-1.0-0.0-38.0","null","../img/red_triangle.png","null","","prac","shape","../img/red_triangle.png","","","","","","","","","","","","",""
"","","","","","image-keyboard-response","42","116588","0.0-2.0-1.0-0.0-39.0","null","../img/red_circle.png","null","","prac","shape","../img/red_circle.png","","","","","","","","","","","","",""
"","","","","","image-keyboard-response","43","117615","0.0-2.0-1.0-0.0-40.0","null","../img/green_triangle.png","null","","prac","shape","../img/green_triangle.png","","","","","","","","","","","","",""
"","","","","","image-keyboard-response","44","118626","0.0-2.0-1.0-0.0-41.0","null","../img/green_circle.png","null","","prac","shape","../img/green_circle.png","","","","","","","","","","","","",""
"","","","","","image-keyboard-response","45","119641","0.0-2.0-1.0-0.0-42.0","null","../img/green_triangle.png","null","","prac","shape","../img/green_triangle.png","","","","","","","","","","","","",""
"","","","","","html-keyboard-response","46","121011","0.0-2.0-1.0-0.0-43.0","857","<div style=""font-size: 60px;"">生人</div>","f","","prac","response","","100","TaskRelevant","2","false","自我","生人","../img/green_circle.png","","自我","../img/red_triangle.png,../img/red_circle.png,../img/green_triangle.png,../img/green_circle.png,../img/green_triangle.png","{""label_type"":""自我"",""is_match"":false,""count"":4,""colorPool"":[""green"",""green"",""red"",""red""]}","j","false"
"","","","","","html-keyboard-response","47","121322","0.0-2.0-1.0-0.0-44.0","null","<span style='color:red; font-size: 70px;'>错误! </span>","null","","","feedback","","","","","","","","","","","","","",""
"","","","","","html-keyboard-response","48","122196","0.0-2.0-1.0-0.0-45.0","null","<div style=""font-size: 60px;"">+</div>","null","","","","","","","","","","","","","","","","",""
"","","","","","image-keyboard-response","49","122708","0.0-2.0-1.0-0.0-46.0","null","../img/green_circle.png","null","","prac","shape","../img/green_circle.png","","","","","","","","","","","","",""
"","","","","","image-keyboard-response","50","123735","0.0-2.0-1.0-0.0-47.0","null","../img/green_triangle.png","null","","prac","shape","../img/green_triangle.png","","","","","","","","","","","","",""
"","","","","","image-keyboard-response","51","124749","0.0-2.0-1.0-0.0-48.0","null","../img/green_circle.png","null","","prac","shape","../img/green_circle.png","","","","","","","","","","","","",""
"","","","","","image-keyboard-response","52","125777","0.0-2.0-1.0-0.0-49.0","null","../img/green_triangle.png","null","","prac","shape","../img/green_triangle.png","","","","","","","","","","","","",""
"","","","","","image-keyboard-response","53","126789","0.0-2.0-1.0-0.0-50.0","null","../img/green_triangle.png","null","","prac","shape","../img/green_triangle.png","","","","","","","","","","","","",""
"","","","","","html-keyboard-response","54","128182","0.0-2.0-1.0-0.0-51.0","877","<div style=""font-size: 60px;"">生人</div>","f","","prac","response","","100","TaskRelevant","2","true","生人","生人","../img/green_triangle.png","","生人","../img/green_circle.png,../img/green_triangle.png,../img/green_circle.png,../img/green_triangle.png,../img/green_triangle.png","{""label_type"":""生人"",""is_match"":true,""count"":4,""colorPool"":[""red"",""red"",""green"",""green""]}","f","true"
"","","","","","html-keyboard-response","55","128488","0.0-2.0-1.0-0.0-52.0","null","<span style='color:GreenYellow; font-size: 70px;'>正确! </span>","null","","","feedback","","","","","","","","","","","","","",""
"","","","","","html-keyboard-response","56","129408","0.0-2.0-1.0-0.0-53.0","null","<div style=""font-size: 60px;"">+</div>","null","","","","","","","","","","","","","","","","",""
"","","","","","image-keyboard-response","57","129909","0.0-2.0-1.0-0.0-54.0","null","../img/red_circle.png","null","","prac","shape","../img/red_circle.png","","","","","","","","","","","","",""
"","","","","","image-keyboard-response","58","130939","0.0-2.0-1.0-0.0-55.0","null","../img/red_triangle.png","null","","prac","shape","../img/red_triangle.png","","","","","","","","","","","","",""
"","","","","","image-keyboard-response","59","131967","0.0-2.0-1.0-0.0-56.0","null","../img/red_circle.png","null","","prac","shape","../img/red_circle.png","","","","","","","","","","","","",""
"","","","","","image-keyboard-response","60","132994","0.0-2.0-1.0-0.0-57.0","null","../img/green_triangle.png","null","","prac","shape","../img/green_triangle.png","","","","","","","","","","","","",""
"","","","","","image-keyboard-response","61","134021","0.0-2.0-1.0-0.0-58.0","null","../img/red_triangle.png","null","","prac","shape","../img/red_triangle.png","","","","","","","","","","","","",""
"","","","","","html-keyboard-response","62","135521","0.0-2.0-1.0-0.0-59.0","999","<div style=""font-size: 60px;"">自我</div>","j","","prac","response","","100","TaskRelevant","2","false","生人","自我","../img/green_triangle.png","","生人","../img/red_circle.png,../img/red_triangle.png,../img/red_circle.png,../img/green_triangle.png,../img/red_triangle.png","{""label_type"":""生人"",""is_match"":false,""count"":4,""colorPool"":[""red"",""green"",""green"",""red""]}","j","true"
"","","","","","html-keyboard-response","63","135824","0.0-2.0-1.0-0.0-60.0","null","<span style='color:GreenYellow; font-size: 70px;'>正确! </span>","null","","","feedback","","","","","","","","","","","","","",""
"","","","","","html-keyboard-response","64","136772","0.0-2.0-1.0-0.0-61.0","null","<div style=""font-size: 60px;"">+</div>","null","","","","","","","","","","","","","","","","",""
"","","","","","image-keyboard-response","65","137273","0.0-2.0-1.0-0.0-62.0","null","../img/red_triangle.png","null","","prac","shape","../img/red_triangle.png","","","","","","","","","","","","",""
"","","","","","image-keyboard-response","66","138299","0.0-2.0-1.0-0.0-63.0","null","../img/red_triangle.png","null","","prac","shape","../img/red_triangle.png","","","","","","","","","","","","",""
"","","","","","image-keyboard-response","67","139314","0.0-2.0-1.0-0.0-64.0","null","../img/red_circle.png","null","","prac","shape","../img/red_circle.png","","","","","","","","","","","","",""
"","","","","","html-keyboard-response","68","141176","0.0-2.0-1.0-0.0-65.0","1361","<div style=""font-size: 60px;"">自我</div>","j","","prac","response","","100","TaskRelevant","2","false","生人","自我","../img/red_triangle.png","","生人","../img/red_triangle.png,../img/red_triangle.png,../img/red_circle.png","{""label_type"":""生人"",""is_match"":false,""count"":4,""colorPool"":[""red"",""green"",""green"",""red""]}","j","true"
"","","","","","html-keyboard-response","69","141483","0.0-2.0-1.0-0.0-66.0","null","<span style='color:GreenYellow; font-size: 70px;'>正确! </span>","null","","","feedback","","","","","","","","","","","","","",""
"","","","","","html-keyboard-response","70","142340","0.0-2.0-1.0-0.0-67.0","null","<div style=""font-size: 60px;"">+</div>","null","","","","","","","","","","","","","","","","",""
"","","","","","image-keyboard-response","71","142854","0.0-2.0-1.0-0.0-68.0","null","../img/green_triangle.png","null","","prac","shape","../img/green_triangle.png","","","","","","","","","","","","",""
"","","","","","image-keyboard-response","72","143884","0.0-2.0-1.0-0.0-69.0","null","../img/green_triangle.png","null","","prac","shape","../img/green_triangle.png","","","","","","","","","","","","",""
"","","","","","image-keyboard-response","73","144898","0.0-2.0-1.0-0.0-70.0","null","../img/red_triangle.png","null","","prac","shape","../img/red_triangle.png","","","","","","","","","","","","",""
"","","","","","image-keyboard-response","74","145910","0.0-2.0-1.0-0.0-71.0","null","../img/green_triangle.png","null","","prac","shape","../img/green_triangle.png","","","","","","","","","","","","",""
"","","","","","image-keyboard-response","75","146925","0.0-2.0-1.0-0.0-72.0","null","../img/red_circle.png","null","","prac","shape","../img/red_circle.png","","","","","","","","","","","","",""
"","","","","","html-keyboard-response","76","148435","0.0-2.0-1.0-0.0-73.0","995","<div style=""font-size: 60px;"">生人</div>","f","","prac","response","","100","TaskRelevant","2","true","生人","生人","../img/green_triangle.png","","生人","../img/green_triangle.png,../img/green_triangle.png,../img/red_triangle.png,../img/green_triangle.png,../img/red_circle.png","{""label_type"":""生人"",""is_match"":true,""count"":4,""colorPool"":[""red"",""red"",""green"",""green""]}","f","true"
"","","","","","html-keyboard-response","77","148744","0.0-2.0-1.0-0.0-74.0","null","<span style='color:GreenYellow; font-size: 70px;'>正确! </span>","null","","","feedback","","","","","","","","","","","","","",""
"","","","","","html-keyboard-response","78","149303","0.0-2.0-1.0-0.0-75.0","null","<div style=""font-size: 60px;"">+</div>","null","","","","","","","","","","","","","","","","",""
"","","","","","image-keyboard-response","79","149805","0.0-2.0-1.0-0.0-76.0","null","../img/green_triangle.png","null","","prac","shape","../img/green_triangle.png","","","","","","","","","","","","",""
"","","","","","image-keyboard-response","80","150814","0.0-2.0-1.0-0.0-77.0","null","../img/green_circle.png","null","","prac","shape","../img/green_circle.png","","","","","","","","","","","","",""
"","","","","","image-keyboard-response","81","151841","0.0-2.0-1.0-0.0-78.0","null","../img/green_circle.png","null","","prac","shape","../img/green_circle.png","","","","","","","","","","","","",""
"","","","","","image-keyboard-response","82","152854","0.0-2.0-1.0-0.0-79.0","null","../img/green_triangle.png","null","","prac","shape","../img/green_triangle.png","","","","","","","","","","","","",""
"","","","","","html-keyboard-response","83","154339","0.0-2.0-1.0-0.0-80.0","970","<div style=""font-size: 60px;"">生人</div>","j","","prac","response","","100","TaskRelevant","2","false","自我","生人","../img/green_circle.png","","自我","../img/green_triangle.png,../img/green_circle.png,../img/green_circle.png,../img/green_triangle.png","{""label_type"":""自我"",""is_match"":false,""count"":4,""colorPool"":[""green"",""green"",""red"",""red""]}","j","true"
"","","","","","html-keyboard-response","84","154645","0.0-2.0-1.0-0.0-81.0","null","<span style='color:GreenYellow; font-size: 70px;'>正确! </span>","null","","","feedback","","","","","","","","","","","","","",""
"","","","","","html-keyboard-response","85","155217","0.0-2.0-1.0-0.0-82.0","null","<div style=""font-size: 60px;"">+</div>","null","","","","","","","","","","","","","","","","",""
"","","","","","image-keyboard-response","86","155727","0.0-2.0-1.0-0.0-83.0","null","../img/red_circle.png","null","","prac","shape","../img/red_circle.png","","","","","","","","","","","","",""
"","","","","","image-keyboard-response","87","156738","0.0-2.0-1.0-0.0-84.0","null","../img/red_circle.png","null","","prac","shape","../img/red_circle.png","","","","","","","","","","","","",""
"","","","","","image-keyboard-response","88","157765","0.0-2.0-1.0-0.0-85.0","null","../img/red_triangle.png","null","","prac","shape","../img/red_triangle.png","","","","","","","","","","","","",""
"","","","","","html-keyboard-response","89","159768","0.0-2.0-1.0-0.0-86.0","null","<div style=""font-size: 60px;"">生人</div>","null","","prac","response","","100","TaskRelevant","2","false","自我","生人","../img/red_circle.png","","自我","../img/red_circle.png,../img/red_circle.png,../img/red_triangle.png","{""label_type"":""自我"",""is_match"":false,""count"":4,""colorPool"":[""green"",""green"",""red"",""red""]}","j","false"
"","","","","","html-keyboard-response","90","160079","0.0-2.0-1.0-0.0-87.0","null","<span class='add_' style='color:yellow; font-size: 70px;'> 太慢! </span>","null","","","feedback","","","","","","","","","","","","","",""
"","","","","","html-keyboard-response","91","160297","0.0-2.0-1.0-0.0-88.0","null","<div style=""font-size: 60px;"">+</div>","null","","","","","","","","","","","","","","","","",""
"","","","","","image-keyboard-response","92","160808","0.0-2.0-1.0-0.0-89.0","null","../img/green_triangle.png","null","","prac","shape","../img/green_triangle.png","","","","","","","","","","","","",""
"","","","","","image-keyboard-response","93","161824","0.0-2.0-1.0-0.0-90.0","null","../img/green_triangle.png","null","","prac","shape","../img/green_triangle.png","","","","","","","","","","","","",""
"","","","","","image-keyboard-response","94","162837","0.0-2.0-1.0-0.0-91.0","null","../img/green_triangle.png","null","","prac","shape","../img/green_triangle.png","","","","","","","","","","","","",""
"","","","","","image-keyboard-response","95","163865","0.0-2.0-1.0-0.0-92.0","null","../img/red_circle.png","null","","prac","shape","../img/red_circle.png","","","","","","","","","","","","",""
"","","","","","image-keyboard-response","96","164882","0.0-2.0-1.0-0.0-93.0","null","../img/green_circle.png","null","","prac","shape","../img/green_circle.png","","","","","","","","","","","","",""
"","","","","","html-keyboard-response","97","166182","0.0-2.0-1.0-0.0-94.0","799","<div style=""font-size: 60px;"">自我</div>","f","","prac","response","","100","TaskRelevant","2","true","自我","自我","../img/red_circle.png","","自我","../img/green_triangle.png,../img/green_triangle.png,../img/green_triangle.png,../img/red_circle.png,../img/green_circle.png","{""label_type"":""自我"",""is_match"":true,""count"":4,""colorPool"":[""green"",""green"",""red"",""red""]}","f","true"
"","","","","","html-keyboard-response","98","166486","0.0-2.0-1.0-0.0-95.0","null","<span style='color:GreenYellow; font-size: 70px;'>正确! </span>","null","","","feedback","","","","","","","","","","","","","",""
"","","","","","html-keyboard-response","99","167032","0.0-2.0-1.0-0.0-96.0","null","<div style=""font-size: 60px;"">+</div>","null","","","","","","","","","","","","","","","","",""
"","","","","","image-keyboard-response","100","167547","0.0-2.0-1.0-0.0-97.0","null","../img/green_circle.png","null","","prac","shape","../img/green_circle.png","","","","","","","","","","","","",""
"","","","","","image-keyboard-response","101","168577","0.0-2.0-1.0-0.0-98.0","null","../img/green_circle.png","null","","prac","shape","../img/green_circle.png","","","","","","","","","","","","",""
"","","","","","image-keyboard-response","102","169605","0.0-2.0-1.0-0.0-99.0","null","../img/green_triangle.png","null","","prac","shape","../img/green_triangle.png","","","","","","","","","","","","",""
"","","","","","image-keyboard-response","103","170616","0.0-2.0-1.0-0.0-100.0","null","../img/red_circle.png","null","","prac","shape","../img/red_circle.png","","","","","","","","","","","","",""
"","","","","","image-keyboard-response","104","171630","0.0-2.0-1.0-0.0-101.0","null","../img/red_triangle.png","null","","prac","shape","../img/red_triangle.png","","","","","","","","","","","","",""
"","","","","","html-keyboard-response","105","173016","0.0-2.0-1.0-0.0-102.0","871","<div style=""font-size: 60px;"">生人</div>","j","","prac","response","","100","TaskRelevant","2","false","自我","生人","../img/red_circle.png","","自我","../img/green_circle.png,../img/green_circle.png,../img/green_triangle.png,../img/red_circle.png,../img/red_triangle.png","{""label_type"":""自我"",""is_match"":false,""count"":4,""colorPool"":[""green"",""green"",""red"",""red""]}","j","true"
"","","","","","html-keyboard-response","106","173325","0.0-2.0-1.0-0.0-103.0","null","<span style='color:GreenYellow; font-size: 70px;'>正确! </span>","null","","","feedback","","","","","","","","","","","","","",""
"","","","","","html-keyboard-response","107","173883","0.0-2.0-1.0-0.0-104.0","null","<div style=""font-size: 60px;"">+</div>","null","","","","","","","","","","","","","","","","",""
"","","","","","image-keyboard-response","108","174396","0.0-2.0-1.0-0.0-105.0","null","../img/green_triangle.png","null","","prac","shape","../img/green_triangle.png","","","","","","","","","","","","",""
"","","","","","image-keyboard-response","109","175407","0.0-2.0-1.0-0.0-106.0","null","../img/red_triangle.png","null","","prac","shape","../img/red_triangle.png","","","","","","","","","","","","",""
"","","","","","image-keyboard-response","110","176435","0.0-2.0-1.0-0.0-107.0","null","../img/green_triangle.png","null","","prac","shape","../img/green_triangle.png","","","","","","","","","","","","",""
"","","","","","image-keyboard-response","111","177448","0.0-2.0-1.0-0.0-108.0","null","../img/red_circle.png","null","","prac","shape","../img/red_circle.png","","","","","","","","","","","","",""
"","","","","","image-keyboard-response","112","178476","0.0-2.0-1.0-0.0-109.0","null","../img/red_triangle.png","null","","prac","shape","../img/red_triangle.png","","","","","","","","","","","","",""
"","","","","","html-keyboard-response","113","179808","0.0-2.0-1.0-0.0-110.0","832","<div style=""font-size: 60px;"">自我</div>","f","","prac","response","","100","TaskRelevant","2","true","自我","自我","../img/red_circle.png","","自我","../img/green_triangle.png,../img/red_triangle.png,../img/green_triangle.png,../img/red_circle.png,../img/red_triangle.png","{""label_type"":""自我"",""is_match"":true,""count"":4,""colorPool"":[""green"",""green"",""red"",""red""]}","f","true"
"","","","","","html-keyboard-response","114","180111","0.0-2.0-1.0-0.0-111.0","null","<span style='color:GreenYellow; font-size: 70px;'>正确! </span>","null","","","feedback","","","","","","","","","","","","","",""
"","","","","","html-keyboard-response","115","183063","0.0-2.0-1.0-1.0","2951","
    <style>
        .context { color: white; font-size: 35px; line-height: 40px; }
    </style>
    <div>
        <p class='context'>您正确回答了 88% 的试次。</p>
        <p class='context'>您的平均反应时为 1074 毫秒。</p>
        <p class='context'>按任意键进入下一页</p>
    </div>
"," ","","","","","","","","","","","","","","","","",""
"","","","","","html-keyboard-response","116","190527","0.0-2.0-2.0","7464","
        <style>
            .context { color: white; font-size: 35px; line-height: 40px; }
            .highlight { color: lightgreen; font-size: 35px; }
            .footer { font-size: 22px; line-height: 40px; }
        </style>
        <div>
            <p class=""context"">恭喜您完成练习。按任意键进入正式实验。</p>
            <p class=""highlight"">正式实验与练习要求相同，请您尽可能又快又准地进行按键反应</p>
            <p class=""footer"">请将您左手和右手的食指放在电脑键盘的相应键位上进行按键。</p>
        </div>
    "," ","","","","","","","","","","","","","","","","",""
"","","","","","html-keyboard-response","117","191628","0.0-2.0-3.0-0.0-0.0","null","<div style=""font-size: 60px;"">+</div>","null","","","","","","","","","","","","","","","","",""
"","","","","","image-keyboard-response","118","192129","0.0-2.0-3.0-0.0-1.0","null","../img/red_circle.png","null","","main","shape","../img/red_circle.png","","","","","","","","","","","","",""
"","","","","","image-keyboard-response","119","193147","0.0-2.0-3.0-0.0-2.0","null","../img/red_circle.png","null","","main","shape","../img/red_circle.png","","","","","","","","","","","","",""
"","","","","","image-keyboard-response","120","194175","0.0-2.0-3.0-0.0-3.0","null","../img/red_triangle.png","null","","main","shape","../img/red_triangle.png","","","","","","","","","","","","",""
"","","","","","image-keyboard-response","121","195204","0.0-2.0-3.0-0.0-4.0","null","../img/green_triangle.png","null","","main","shape","../img/green_triangle.png","","","","","","","","","","","","",""
"","","","","","image-keyboard-response","122","196224","0.0-2.0-3.0-0.0-5.0","null","../img/red_triangle.png","null","","main","shape","../img/red_triangle.png","","","","","","","","","","","","",""
"","","","","","html-keyboard-response","123","197729","0.0-2.0-3.0-0.0-6.0","1003","<div style=""font-size: 60px;"">生人</div>","f","","main","response","","100","TaskRelevant","2","true","生人","生人","../img/green_triangle.png","","生人","../img/red_circle.png,../img/red_circle.png,../img/red_triangle.png,../img/green_triangle.png,../img/red_triangle.png","{""label_type"":""生人"",""is_match"":true,""count"":24,""colorPool"":[""green"",""green"",""red"",""red"",""red"",""red"",""red"",""green"",""red"",""green"",""green"",""green"",""green"",""red"",""red"",""red"",""red"",""red"",""green"",""green"",""green"",""green"",""green"",""red""]}","f","true"
"","","","","","html-keyboard-response","124","198031","0.0-2.0-3.0-0.0-7.0","null","<span style='color:GreenYellow; font-size: 70px;'>正确! </span>","null","","","feedback","","","","","","","","","","","","","",""
"","","","","","html-keyboard-response","125","198622","0.0-2.0-3.0-0.0-8.0","null","<div style=""font-size: 60px;"">+</div>","null","","","","","","","","","","","","","","","","",""
"","","","","","image-keyboard-response","126","199124","0.0-2.0-3.0-0.0-9.0","null","../img/red_circle.png","null","","main","shape","../img/red_circle.png","","","","","","","","","","","","",""
"","","","","","image-keyboard-response","127","200146","0.0-2.0-3.0-0.0-10.0","null","../img/green_triangle.png","null","","main","shape","../img/green_triangle.png","","","","","","","","","","","","",""
"","","","","","image-keyboard-response","128","201174","0.0-2.0-3.0-0.0-11.0","null","../img/red_circle.png","null","","main","shape","../img/red_circle.png","","","","","","","","","","","","",""
"","","","","","image-keyboard-response","129","202184","0.0-2.0-3.0-0.0-12.0","null","../img/red_circle.png","null","","main","shape","../img/red_circle.png","","","","","","","","","","","","",""
"","","","","","html-keyboard-response","130","203665","0.0-2.0-3.0-0.0-13.0","979","<div style=""font-size: 60px;"">生人</div>","j","","main","response","","100","TaskRelevant","2","false","自我","生人","../img/red_circle.png","","自我","../img/red_circle.png,../img/green_triangle.png,../img/red_circle.png,../img/red_circle.png","{""label_type"":""自我"",""is_match"":false,""count"":24,""colorPool"":[""red"",""red"",""green"",""red"",""green"",""green"",""green"",""red"",""red"",""red"",""green"",""red"",""green"",""green"",""red"",""green"",""red"",""green"",""green"",""red"",""green"",""red"",""green"",""red""]}","j","true"
"","","","","","html-keyboard-response","131","203979","0.0-2.0-3.0-0.0-14.0","null","<span style='color:GreenYellow; font-size: 70px;'>正确! </span>","null","","","feedback","","","","","","","","","","","","","",""
"","","","","","html-keyboard-response","132","204993","0.0-2.0-3.0-0.0-15.0","null","<div style=""font-size: 60px;"">+</div>","null","","","","","","","","","","","","","","","","",""
"","","","","","image-keyboard-response","133","205494","0.0-2.0-3.0-0.0-16.0","null","../img/red_circle.png","null","","main","shape","../img/red_circle.png","","","","","","","","","","","","",""
"","","","","","image-keyboard-response","134","206518","0.0-2.0-3.0-0.0-17.0","null","../img/green_triangle.png","null","","main","shape","../img/green_triangle.png","","","","","","","","","","","","",""
"","","","","","image-keyboard-response","135","207522","0.0-2.0-3.0-0.0-18.0","null","../img/red_circle.png","null","","main","shape","../img/red_circle.png","","","","","","","","","","","","",""
"","","","","","html-keyboard-response","136","208997","0.0-2.0-3.0-0.0-19.0","975","<div style=""font-size: 60px;"">自我</div>","j","","main","response","","100","TaskRelevant","2","false","生人","自我","../img/green_triangle.png","","生人","../img/red_circle.png,../img/green_triangle.png,../img/red_circle.png","{""label_type"":""生人"",""is_match"":false,""count"":24,""colorPool"":[""green"",""green"",""red"",""red"",""red"",""red"",""green"",""green"",""green"",""green"",""red"",""green"",""red"",""green"",""red"",""green"",""red"",""red"",""green"",""red"",""red"",""green"",""red"",""green""]}","j","true"
"","","","","","html-keyboard-response","137","209300","0.0-2.0-3.0-0.0-20.0","null","<span style='color:GreenYellow; font-size: 70px;'>正确! </span>","null","","","feedback","","","","","","","","","","","","","",""
"","","","","","html-keyboard-response","138","210143","0.0-2.0-3.0-0.0-21.0","null","<div style=""font-size: 60px;"">+</div>","null","","","","","","","","","","","","","","","","",""
"","","","","","image-keyboard-response","139","210657","0.0-2.0-3.0-0.0-22.0","null","../img/red_triangle.png","null","","main","shape","../img/red_triangle.png","","","","","","","","","","","","",""
"","","","","","image-keyboard-response","140","211685","0.0-2.0-3.0-0.0-23.0","null","../img/green_circle.png","null","","main","shape","../img/green_circle.png","","","","","","","","","","","","",""
"","","","","","image-keyboard-response","141","212697","0.0-2.0-3.0-0.0-24.0","null","../img/red_circle.png","null","","main","shape","../img/red_circle.png","","","","","","","","","","","","",""
"","","","","","html-keyboard-response","142","214272","0.0-2.0-3.0-0.0-25.0","1061","<div style=""font-size: 60px;"">自我</div>","f","","main","response","","100","TaskRelevant","2","true","自我","自我","../img/green_circle.png","","自我","../img/red_triangle.png,../img/green_circle.png,../img/red_circle.png","{""label_type"":""自我"",""is_match"":true,""count"":24,""colorPool"":[""green"",""red"",""green"",""green"",""green"",""red"",""red"",""green"",""green"",""red"",""red"",""red"",""green"",""green"",""red"",""red"",""red"",""green"",""red"",""green"",""green"",""red"",""green"",""red""]}","f","true"
"","","","","","html-keyboard-response","143","214580","0.0-2.0-3.0-0.0-26.0","null","<span style='color:GreenYellow; font-size: 70px;'>正确! </span>","null","","","feedback","","","","","","","","","","","","","",""
"","","","","","html-keyboard-response","144","214894","0.0-2.0-3.0-0.0-27.0","null","<div style=""font-size: 60px;"">+</div>","null","","","","","","","","","","","","","","","","",""
"","","","","","image-keyboard-response","145","215406","0.0-2.0-3.0-0.0-28.0","null","../img/red_triangle.png","null","","main","shape","../img/red_triangle.png","","","","","","","","","","","","",""
"","","","","","image-keyboard-response","146","216419","0.0-2.0-3.0-0.0-29.0","null","../img/red_circle.png","null","","main","shape","../img/red_circle.png","","","","","","","","","","","","",""
"","","","","","image-keyboard-response","147","217429","0.0-2.0-3.0-0.0-30.0","null","../img/red_triangle.png","null","","main","shape","../img/red_triangle.png","","","","","","","","","","","","",""
"","","","","","image-keyboard-response","148","218442","0.0-2.0-3.0-0.0-31.0","null","../img/green_triangle.png","null","","main","shape","../img/green_triangle.png","","","","","","","","","","","","",""
"","","","","","image-keyboard-response","149","219467","0.0-2.0-3.0-0.0-32.0","null","../img/red_triangle.png","null","","main","shape","../img/red_triangle.png","","","","","","","","","","","","",""
"","","","","","html-keyboard-response","150","220742","0.0-2.0-3.0-0.0-33.0","774","<div style=""font-size: 60px;"">自我</div>","j","","main","response","","100","TaskRelevant","2","false","生人","自我","../img/green_triangle.png","","生人","../img/red_triangle.png,../img/red_circle.png,../img/red_triangle.png,../img/green_triangle.png,../img/red_triangle.png","{""label_type"":""生人"",""is_match"":false,""count"":24,""colorPool"":[""green"",""green"",""red"",""red"",""red"",""red"",""green"",""green"",""green"",""green"",""red"",""green"",""red"",""green"",""red"",""green"",""red"",""red"",""green"",""red"",""red"",""green"",""red"",""green""]}","j","true"
"","","","","","html-keyboard-response","151","221054","0.0-2.0-3.0-0.0-34.0","null","<span style='color:GreenYellow; font-size: 70px;'>正确! </span>","null","","","feedback","","","","","","","","","","","","","",""
"","","","","","html-keyboard-response","152","222018","0.0-2.0-3.0-0.0-35.0","null","<div style=""font-size: 60px;"">+</div>","null","","","","","","","","","","","","","","","","",""
"","","","","","image-keyboard-response","153","222533","0.0-2.0-3.0-0.0-36.0","null","../img/green_triangle.png","null","","main","shape","../img/green_triangle.png","","","","","","","","","","","","",""
"","","","","","image-keyboard-response","154","223560","0.0-2.0-3.0-0.0-37.0","null","../img/red_circle.png","null","","main","shape","../img/red_circle.png","","","","","","","","","","","","",""
"","","","","","image-keyboard-response","155","224586","0.0-2.0-3.0-0.0-38.0","null","../img/red_circle.png","null","","main","shape","../img/red_circle.png","","","","","","","","","","","","",""
"","","","","","html-keyboard-response","156","226322","0.0-2.0-3.0-0.0-39.0","1234","<div style=""font-size: 60px;"">自我</div>","f","","main","response","","100","TaskRelevant","2","true","自我","自我","../img/red_circle.png","","自我","../img/green_triangle.png,../img/red_circle.png,../img/red_circle.png","{""label_type"":""自我"",""is_match"":true,""count"":24,""colorPool"":[""green"",""red"",""green"",""green"",""green"",""red"",""red"",""green"",""green"",""red"",""red"",""red"",""green"",""green"",""red"",""red"",""red"",""green"",""red"",""green"",""green"",""red"",""green"",""red""]}","f","true"
"","","","","","html-keyboard-response","157","226628","0.0-2.0-3.0-0.0-40.0","null","<span style='color:GreenYellow; font-size: 70px;'>正确! </span>","null","","","feedback","","","","","","","","","","","","","",""
"","","","","","html-keyboard-response","158","227204","0.0-2.0-3.0-0.0-41.0","null","<div style=""font-size: 60px;"">+</div>","null","","","","","","","","","","","","","","","","",""
"","","","","","image-keyboard-response","159","227719","0.0-2.0-3.0-0.0-42.0","null","../img/red_triangle.png","null","","main","shape","../img/red_triangle.png","","","","","","","","","","","","",""
"","","","","","image-keyboard-response","160","228745","0.0-2.0-3.0-0.0-43.0","null","../img/green_circle.png","null","","main","shape","../img/green_circle.png","","","","","","","","","","","","",""
"","","","","","image-keyboard-response","161","229757","0.0-2.0-3.0-0.0-44.0","null","../img/green_triangle.png","null","","main","shape","../img/green_triangle.png","","","","","","","","","","","","",""
"","","","","","image-keyboard-response","162","230784","0.0-2.0-3.0-0.0-45.0","null","../img/red_triangle.png","null","","main","shape","../img/red_triangle.png","","","","","","","","","","","","",""
"","","","","","image-keyboard-response","163","231812","0.0-2.0-3.0-0.0-46.0","null","../img/red_circle.png","null","","main","shape","../img/red_circle.png","","","","","","","","","","","","",""
"","","","","","html-keyboard-response","164","233818","0.0-2.0-3.0-0.0-47.0","null","<div style=""font-size: 60px;"">自我</div>","null","","main","response","","100","TaskRelevant","2","false","生人","自我","../img/red_triangle.png","","生人","../img/red_triangle.png,../img/green_circle.png,../img/green_triangle.png,../img/red_triangle.png,../img/red_circle.png","{""label_type"":""生人"",""is_match"":false,""count"":24,""colorPool"":[""green"",""green"",""red"",""red"",""red"",""red"",""green"",""green"",""green"",""green"",""red"",""green"",""red"",""green"",""red"",""green"",""red"",""red"",""green"",""red"",""red"",""green"",""red"",""green""]}","j","false"
"","","","","","html-keyboard-response","165","234130","0.0-2.0-3.0-0.0-48.0","null","<span class='add_' style='color:yellow; font-size: 70px;'> 太慢! </span>","null","","","feedback","","","","","","","","","","","","","",""
"","","","","","html-keyboard-response","166","234736","0.0-2.0-3.0-0.0-49.0","null","<div style=""font-size: 60px;"">+</div>","null","","","","","","","","","","","","","","","","",""
"","","","","","image-keyboard-response","167","235238","0.0-2.0-3.0-0.0-50.0","null","../img/red_circle.png","null","","main","shape","../img/red_circle.png","","","","","","","","","","","","",""
"","","","","","image-keyboard-response","168","236243","0.0-2.0-3.0-0.0-51.0","null","../img/red_circle.png","null","","main","shape","../img/red_circle.png","","","","","","","","","","","","",""
"","","","","","image-keyboard-response","169","237256","0.0-2.0-3.0-0.0-52.0","null","../img/green_triangle.png","null","","main","shape","../img/green_triangle.png","","","","","","","","","","","","",""
"","","","","","image-keyboard-response","170","238282","0.0-2.0-3.0-0.0-53.0","null","../img/green_triangle.png","null","","main","shape","../img/green_triangle.png","","","","","","","","","","","","",""
"","","","","","html-keyboard-response","171","239668","0.0-2.0-3.0-0.0-54.0","885","<div style=""font-size: 60px;"">生人</div>","f","","main","response","","100","TaskRelevant","2","true","生人","生人","../img/green_triangle.png","","生人","../img/red_circle.png,../img/red_circle.png,../img/green_triangle.png,../img/green_triangle.png","{""label_type"":""生人"",""is_match"":true,""count"":24,""colorPool"":[""green"",""green"",""red"",""red"",""red"",""red"",""red"",""green"",""red"",""green"",""green"",""green"",""green"",""red"",""red"",""red"",""red"",""red"",""green"",""green"",""green"",""green"",""green"",""red""]}","f","true"
"","","","","","html-keyboard-response","172","239972","0.0-2.0-3.0-0.0-55.0","null","<span style='color:GreenYellow; font-size: 70px;'>正确! </span>","null","","","feedback","","","","","","","","","","","","","",""
"","","","","","html-keyboard-response","173","240750","0.0-2.0-3.0-0.0-56.0","null","<div style=""font-size: 60px;"">+</div>","null","","","","","","","","","","","","","","","","",""
"","","","","","image-keyboard-response","174","241252","0.0-2.0-3.0-0.0-57.0","null","../img/green_circle.png","null","","main","shape","../img/green_circle.png","","","","","","","","","","","","",""
"","","","","","image-keyboard-response","175","242280","0.0-2.0-3.0-0.0-58.0","null","../img/green_circle.png","null","","main","shape","../img/green_circle.png","","","","","","","","","","","","",""
"","","","","","image-keyboard-response","176","243291","0.0-2.0-3.0-0.0-59.0","null","../img/green_triangle.png","null","","main","shape","../img/green_triangle.png","","","","","","","","","","","","",""
"","","","","","image-keyboard-response","177","244317","0.0-2.0-3.0-0.0-60.0","null","../img/red_triangle.png","null","","main","shape","../img/red_triangle.png","","","","","","","","","","","","",""
"","","","","","image-keyboard-response","178","245329","0.0-2.0-3.0-0.0-61.0","null","../img/red_circle.png","null","","main","shape","../img/red_circle.png","","","","","","","","","","","","",""
"","","","","","html-keyboard-response","179","246770","0.0-2.0-3.0-0.0-62.0","941","<div style=""font-size: 60px;"">自我</div>","j","","main","response","","100","TaskRelevant","2","false","生人","自我","../img/red_triangle.png","","生人","../img/green_circle.png,../img/green_circle.png,../img/green_triangle.png,../img/red_triangle.png,../img/red_circle.png","{""label_type"":""生人"",""is_match"":false,""count"":24,""colorPool"":[""green"",""green"",""red"",""red"",""red"",""red"",""green"",""green"",""green"",""green"",""red"",""green"",""red"",""green"",""red"",""green"",""red"",""red"",""green"",""red"",""red"",""green"",""red"",""green""]}","j","true"
"","","","","","html-keyboard-response","180","247073","0.0-2.0-3.0-0.0-63.0","null","<span style='color:GreenYellow; font-size: 70px;'>正确! </span>","null","","","feedback","","","","","","","","","","","","","",""
"","","","","","html-keyboard-response","181","247367","0.0-2.0-3.0-0.0-64.0","null","<div style=""font-size: 60px;"">+</div>","null","","","","","","","","","","","","","","","","",""
"","","","","","image-keyboard-response","182","247881","0.0-2.0-3.0-0.0-65.0","null","../img/red_circle.png","null","","main","shape","../img/red_circle.png","","","","","","","","","","","","",""
"","","","","","image-keyboard-response","183","248908","0.0-2.0-3.0-0.0-66.0","null","../img/green_circle.png","null","","main","shape","../img/green_circle.png","","","","","","","","","","","","",""
"","","","","","image-keyboard-response","184","249921","0.0-2.0-3.0-0.0-67.0","null","../img/red_circle.png","null","","main","shape","../img/red_circle.png","","","","","","","","","","","","",""
"","","","","","html-keyboard-response","185","251289","0.0-2.0-3.0-0.0-68.0","867","<div style=""font-size: 60px;"">自我</div>","f","","main","response","","100","TaskRelevant","2","true","自我","自我","../img/green_circle.png","","自我","../img/red_circle.png,../img/green_circle.png,../img/red_circle.png","{""label_type"":""自我"",""is_match"":true,""count"":24,""colorPool"":[""green"",""red"",""green"",""green"",""green"",""red"",""red"",""green"",""green"",""red"",""red"",""red"",""green"",""green"",""red"",""red"",""red"",""green"",""red"",""green"",""green"",""red"",""green"",""red""]}","f","true"
"","","","","","html-keyboard-response","186","251601","0.0-2.0-3.0-0.0-69.0","null","<span style='color:GreenYellow; font-size: 70px;'>正确! </span>","null","","","feedback","","","","","","","","","","","","","",""
"","","","","","html-keyboard-response","187","252408","0.0-2.0-3.0-0.0-70.0","null","<div style=""font-size: 60px;"">+</div>","null","","","","","","","","","","","","","","","","",""
"","","","","","image-keyboard-response","188","252920","0.0-2.0-3.0-0.0-71.0","null","../img/green_circle.png","null","","main","shape","../img/green_circle.png","","","","","","","","","","","","",""
"","","","","","image-keyboard-response","189","253947","0.0-2.0-3.0-0.0-72.0","null","../img/green_circle.png","null","","main","shape","../img/green_circle.png","","","","","","","","","","","","",""
"","","","","","image-keyboard-response","190","254973","0.0-2.0-3.0-0.0-73.0","null","../img/green_circle.png","null","","main","shape","../img/green_circle.png","","","","","","","","","","","","",""
"","","","","","image-keyboard-response","191","255998","0.0-2.0-3.0-0.0-74.0","null","../img/green_circle.png","null","","main","shape","../img/green_circle.png","","","","","","","","","","","","",""
"","","","","","image-keyboard-response","192","257009","0.0-2.0-3.0-0.0-75.0","null","../img/red_circle.png","null","","main","shape","../img/red_circle.png","","","","","","","","","","","","",""
"","","","","","html-keyboard-response","193","258377","0.0-2.0-3.0-0.0-76.0","867","<div style=""font-size: 60px;"">自我</div>","f","","main","response","","100","TaskRelevant","2","true","自我","自我","../img/green_circle.png","","自我","../img/green_circle.png,../img/green_circle.png,../img/green_circle.png,../img/green_circle.png,../img/red_circle.png","{""label_type"":""自我"",""is_match"":true,""count"":24,""colorPool"":[""green"",""red"",""green"",""green"",""green"",""red"",""red"",""green"",""green"",""red"",""red"",""red"",""green"",""green"",""red"",""red"",""red"",""green"",""red"",""green"",""green"",""red"",""green"",""red""]}","f","true"
"","","","","","html-keyboard-response","194","258692","0.0-2.0-3.0-0.0-77.0","null","<span style='color:GreenYellow; font-size: 70px;'>正确! </span>","null","","","feedback","","","","","","","","","","","","","",""
"","","","","","html-keyboard-response","195","259717","0.0-2.0-3.0-0.0-78.0","null","<div style=""font-size: 60px;"">+</div>","null","","","","","","","","","","","","","","","","",""
"","","","","","image-keyboard-response","196","260219","0.0-2.0-3.0-0.0-79.0","null","../img/green_circle.png","null","","main","shape","../img/green_circle.png","","","","","","","","","","","","",""
"","","","","","image-keyboard-response","197","261245","0.0-2.0-3.0-0.0-80.0","null","../img/red_circle.png","null","","main","shape","../img/red_circle.png","","","","","","","","","","","","",""
"","","","","","image-keyboard-response","198","262255","0.0-2.0-3.0-0.0-81.0","null","../img/green_circle.png","null","","main","shape","../img/green_circle.png","","","","","","","","","","","","",""
"","","","","","image-keyboard-response","199","263283","0.0-2.0-3.0-0.0-82.0","null","../img/red_triangle.png","null","","main","shape","../img/red_triangle.png","","","","","","","","","","","","",""
"","","","","","html-keyboard-response","200","264484","0.0-2.0-3.0-0.0-83.0","687","<div style=""font-size: 60px;"">自我</div>","f","","main","response","","100","TaskRelevant","2","true","自我","自我","../img/green_circle.png","","自我","../img/green_circle.png,../img/red_circle.png,../img/green_circle.png,../img/red_triangle.png","{""label_type"":""自我"",""is_match"":true,""count"":24,""colorPool"":[""green"",""red"",""green"",""green"",""green"",""red"",""red"",""green"",""green"",""red"",""red"",""red"",""green"",""green"",""red"",""red"",""red"",""green"",""red"",""green"",""green"",""red"",""green"",""red""]}","f","true"
"","","","","","html-keyboard-response","201","264793","0.0-2.0-3.0-0.0-84.0","null","<span style='color:GreenYellow; font-size: 70px;'>正确! </span>","null","","","feedback","","","","","","","","","","","","","",""
"","","","","","html-keyboard-response","202","265666","0.0-2.0-3.0-0.0-85.0","null","<div style=""font-size: 60px;"">+</div>","null","","","","","","","","","","","","","","","","",""
"","","","","","image-keyboard-response","203","266167","0.0-2.0-3.0-0.0-86.0","null","../img/green_circle.png","null","","main","shape","../img/green_circle.png","","","","","","","","","","","","",""
"","","","","","image-keyboard-response","204","267177","0.0-2.0-3.0-0.0-87.0","null","../img/green_triangle.png","null","","main","shape","../img/green_triangle.png","","","","","","","","","","","","",""
"","","","","","image-keyboard-response","205","268188","0.0-2.0-3.0-0.0-88.0","null","../img/red_triangle.png","null","","main","shape","../img/red_triangle.png","","","","","","","","","","","","",""
"","","","","","image-keyboard-response","206","269214","0.0-2.0-3.0-0.0-89.0","null","../img/green_triangle.png","null","","main","shape","../img/green_triangle.png","","","","","","","","","","","","",""
"","","","","","html-keyboard-response","207","270469","0.0-2.0-3.0-0.0-90.0","753","<div style=""font-size: 60px;"">生人</div>","f","","main","response","","100","TaskRelevant","2","true","生人","生人","../img/red_triangle.png","","生人","../img/green_circle.png,../img/green_triangle.png,../img/red_triangle.png,../img/green_triangle.png","{""label_type"":""生人"",""is_match"":true,""count"":24,""colorPool"":[""green"",""green"",""red"",""red"",""red"",""red"",""red"",""green"",""red"",""green"",""green"",""green"",""green"",""red"",""red"",""red"",""red"",""red"",""green"",""green"",""green"",""green"",""green"",""red""]}","f","true"
"","","","","","html-keyboard-response","208","270780","0.0-2.0-3.0-0.0-91.0","null","<span style='color:GreenYellow; font-size: 70px;'>正确! </span>","null","","","feedback","","","","","","","","","","","","","",""
"","","","","","html-keyboard-response","209","271200","0.0-2.0-3.0-0.0-92.0","null","<div style=""font-size: 60px;"">+</div>","null","","","","","","","","","","","","","","","","",""
"","","","","","image-keyboard-response","210","271702","0.0-2.0-3.0-0.0-93.0","null","../img/red_triangle.png","null","","main","shape","../img/red_triangle.png","","","","","","","","","","","","",""
"","","","","","image-keyboard-response","211","272708","0.0-2.0-3.0-0.0-94.0","null","../img/red_circle.png","null","","main","shape","../img/red_circle.png","","","","","","","","","","","","",""
"","","","","","image-keyboard-response","212","273733","0.0-2.0-3.0-0.0-95.0","null","../img/red_circle.png","null","","main","shape","../img/red_circle.png","","","","","","","","","","","","",""
"","","","","","image-keyboard-response","213","274746","0.0-2.0-3.0-0.0-96.0","null","../img/green_circle.png","null","","main","shape","../img/green_circle.png","","","","","","","","","","","","",""
"","","","","","html-keyboard-response","214","275703","0.0-2.0-3.0-0.0-97.0","443","<div style=""font-size: 60px;"">自我</div>","f","","main","response","","100","TaskRelevant","2","true","自我","自我","../img/red_circle.png","","自我","../img/red_triangle.png,../img/red_circle.png,../img/red_circle.png,../img/green_circle.png","{""label_type"":""自我"",""is_match"":true,""count"":24,""colorPool"":[""green"",""red"",""green"",""green"",""green"",""red"",""red"",""green"",""green"",""red"",""red"",""red"",""green"",""green"",""red"",""red"",""red"",""green"",""red"",""green"",""green"",""red"",""green"",""red""]}","f","true"
"","","","","","html-keyboard-response","215","276009","0.0-2.0-3.0-0.0-98.0","null","<span style='color:GreenYellow; font-size: 70px;'>正确! </span>","null","","","feedback","","","","","","","","","","","","","",""
"","","","","","html-keyboard-response","216","276567","0.0-2.0-3.0-0.0-99.0","null","<div style=""font-size: 60px;"">+</div>","null","","","","","","","","","","","","","","","","",""
"","","","","","image-keyboard-response","217","277081","0.0-2.0-3.0-0.0-100.0","null","../img/green_circle.png","null","","main","shape","../img/green_circle.png","","","","","","","","","","","","",""
"","","","","","image-keyboard-response","218","278107","0.0-2.0-3.0-0.0-101.0","null","../img/red_triangle.png","null","","main","shape","../img/red_triangle.png","","","","","","","","","","","","",""
"","","","","","image-keyboard-response","219","279134","0.0-2.0-3.0-0.0-102.0","null","../img/red_circle.png","null","","main","shape","../img/red_circle.png","","","","","","","","","","","","",""
"","","","","","html-keyboard-response","220","280643","0.0-2.0-3.0-0.0-103.0","995","<div style=""font-size: 60px;"">自我</div>","j","","main","response","","100","TaskRelevant","2","false","生人","自我","../img/red_triangle.png","","生人","../img/green_circle.png,../img/red_triangle.png,../img/red_circle.png","{""label_type"":""生人"",""is_match"":false,""count"":24,""colorPool"":[""green"",""green"",""red"",""red"",""red"",""red"",""green"",""green"",""green"",""green"",""red"",""green"",""red"",""green"",""red"",""green"",""red"",""red"",""green"",""red"",""red"",""green"",""red"",""green""]}","j","true"
"","","","","","html-keyboard-response","221","280955","0.0-2.0-3.0-0.0-104.0","null","<span style='color:GreenYellow; font-size: 70px;'>正确! </span>","null","","","feedback","","","","","","","","","","","","","",""
"","","","","","html-keyboard-response","222","281329","0.0-2.0-3.0-0.0-105.0","null","<div style=""font-size: 60px;"">+</div>","null","","","","","","","","","","","","","","","","",""
"","","","","","image-keyboard-response","223","281844","0.0-2.0-3.0-0.0-106.0","null","../img/red_triangle.png","null","","main","shape","../img/red_triangle.png","","","","","","","","","","","","",""
"","","","","","image-keyboard-response","224","282855","0.0-2.0-3.0-0.0-107.0","null","../img/red_circle.png","null","","main","shape","../img/red_circle.png","","","","","","","","","","","","",""
"","","","","","image-keyboard-response","225","283867","0.0-2.0-3.0-0.0-108.0","null","../img/green_triangle.png","null","","main","shape","../img/green_triangle.png","","","","","","","","","","","","",""
"","","","","","html-keyboard-response","226","285692","0.0-2.0-3.0-0.0-109.0","1324","<div style=""font-size: 60px;"">生人</div>","j","","main","response","","100","TaskRelevant","2","false","自我","生人","../img/red_circle.png","","自我","../img/red_triangle.png,../img/red_circle.png,../img/green_triangle.png","{""label_type"":""自我"",""is_match"":false,""count"":24,""colorPool"":[""red"",""red"",""green"",""red"",""green"",""green"",""green"",""red"",""red"",""red"",""green"",""red"",""green"",""green"",""red"",""green"",""red"",""green"",""green"",""red"",""green"",""red"",""green"",""red""]}","j","true"
"","","","","","html-keyboard-response","227","285998","0.0-2.0-3.0-0.0-110.0","null","<span style='color:GreenYellow; font-size: 70px;'>正确! </span>","null","","","feedback","","","","","","","","","","","","","",""
"","","","","","html-keyboard-response","228","286869","0.0-2.0-3.0-0.0-111.0","null","<div style=""font-size: 60px;"">+</div>","null","","","","","","","","","","","","","","","","",""
"","","","","","image-keyboard-response","229","287371","0.0-2.0-3.0-0.0-112.0","null","../img/green_triangle.png","null","","main","shape","../img/green_triangle.png","","","","","","","","","","","","",""
"","","","","","image-keyboard-response","230","288396","0.0-2.0-3.0-0.0-113.0","null","../img/red_circle.png","null","","main","shape","../img/red_circle.png","","","","","","","","","","","","",""
"","","","","","image-keyboard-response","231","289427","0.0-2.0-3.0-0.0-114.0","null","../img/green_circle.png","null","","main","shape","../img/green_circle.png","","","","","","","","","","","","",""
"","","","","","image-keyboard-response","232","290453","0.0-2.0-3.0-0.0-115.0","null","../img/red_triangle.png","null","","main","shape","../img/red_triangle.png","","","","","","","","","","","","",""
"","","","","","html-keyboard-response","233","292169","0.0-2.0-3.0-0.0-116.0","1216","<div style=""font-size: 60px;"">生人</div>","j","","main","response","","100","TaskRelevant","2","false","自我","生人","../img/green_circle.png","","自我","../img/green_triangle.png,../img/red_circle.png,../img/green_circle.png,../img/red_triangle.png","{""label_type"":""自我"",""is_match"":false,""count"":24,""colorPool"":[""red"",""red"",""green"",""red"",""green"",""green"",""green"",""red"",""red"",""red"",""green"",""red"",""green"",""green"",""red"",""green"",""red"",""green"",""green"",""red"",""green"",""red"",""green"",""red""]}","j","true"
"","","","","","html-keyboard-response","234","292470","0.0-2.0-3.0-0.0-117.0","null","<span style='color:GreenYellow; font-size: 70px;'>正确! </span>","null","","","feedback","","","","","","","","","","","","","",""
"","","","","","html-keyboard-response","235","293421","0.0-2.0-3.0-0.0-118.0","null","<div style=""font-size: 60px;"">+</div>","null","","","","","","","","","","","","","","","","",""
"","","","","","image-keyboard-response","236","293936","0.0-2.0-3.0-0.0-119.0","null","../img/red_triangle.png","null","","main","shape","../img/red_triangle.png","","","","","","","","","","","","",""
"","","","","","image-keyboard-response","237","294949","0.0-2.0-3.0-0.0-120.0","null","../img/red_circle.png","null","","main","shape","../img/red_circle.png","","","","","","","","","","","","",""
"","","","","","image-keyboard-response","238","295962","0.0-2.0-3.0-0.0-121.0","null","../img/red_circle.png","null","","main","shape","../img/red_circle.png","","","","","","","","","","","","",""
"","","","","","image-keyboard-response","239","296988","0.0-2.0-3.0-0.0-122.0","null","../img/green_circle.png","null","","main","shape","../img/green_circle.png","","","","","","","","","","","","",""
"","","","","","html-keyboard-response","240","298271","0.0-2.0-3.0-0.0-123.0","781","<div style=""font-size: 60px;"">生人</div>","j","","main","response","","100","TaskRelevant","2","false","自我","生人","../img/red_circle.png","","自我","../img/red_triangle.png,../img/red_circle.png,../img/red_circle.png,../img/green_circle.png","{""label_type"":""自我"",""is_match"":false,""count"":24,""colorPool"":[""red"",""red"",""green"",""red"",""green"",""green"",""green"",""red"",""red"",""red"",""green"",""red"",""green"",""green"",""red"",""green"",""red"",""green"",""green"",""red"",""green"",""red"",""green"",""red""]}","j","true"
"","","","","","html-keyboard-response","241","298574","0.0-2.0-3.0-0.0-124.0","null","<span style='color:GreenYellow; font-size: 70px;'>正确! </span>","null","","","feedback","","","","","","","","","","","","","",""
"","","","","","html-keyboard-response","242","298963","0.0-2.0-3.0-0.0-125.0","null","<div style=""font-size: 60px;"">+</div>","null","","","","","","","","","","","","","","","","",""
"","","","","","image-keyboard-response","243","299465","0.0-2.0-3.0-0.0-126.0","null","../img/green_triangle.png","null","","main","shape","../img/green_triangle.png","","","","","","","","","","","","",""
"","","","","","image-keyboard-response","244","300492","0.0-2.0-3.0-0.0-127.0","null","../img/green_circle.png","null","","main","shape","../img/green_circle.png","","","","","","","","","","","","",""
"","","","","","image-keyboard-response","245","301504","0.0-2.0-3.0-0.0-128.0","null","../img/green_circle.png","null","","main","shape","../img/green_circle.png","","","","","","","","","","","","",""
"","","","","","image-keyboard-response","246","302517","0.0-2.0-3.0-0.0-129.0","null","../img/red_triangle.png","null","","main","shape","../img/red_triangle.png","","","","","","","","","","","","",""
"","","","","","image-keyboard-response","247","303546","0.0-2.0-3.0-0.0-130.0","null","../img/red_triangle.png","null","","main","shape","../img/red_triangle.png","","","","","","","","","","","","",""
"","","","","","html-keyboard-response","248","305284","0.0-2.0-3.0-0.0-131.0","1237","<div style=""font-size: 60px;"">生人</div>","f","","main","response","","100","TaskRelevant","2","true","生人","生人","../img/red_triangle.png","","生人","../img/green_triangle.png,../img/green_circle.png,../img/green_circle.png,../img/red_triangle.png,../img/red_triangle.png","{""label_type"":""生人"",""is_match"":true,""count"":24,""colorPool"":[""green"",""green"",""red"",""red"",""red"",""red"",""red"",""green"",""red"",""green"",""green"",""green"",""green"",""red"",""red"",""red"",""red"",""red"",""green"",""green"",""green"",""green"",""green"",""red""]}","f","true"
"","","","","","html-keyboard-response","249","305589","0.0-2.0-3.0-0.0-132.0","null","<span style='color:GreenYellow; font-size: 70px;'>正确! </span>","null","","","feedback","","","","","","","","","","","","","",""
"","","","","","html-keyboard-response","250","305903","0.0-2.0-3.0-0.0-133.0","null","<div style=""font-size: 60px;"">+</div>","null","","","","","","","","","","","","","","","","",""
"","","","","","image-keyboard-response","251","306415","0.0-2.0-3.0-0.0-134.0","null","../img/green_triangle.png","null","","main","shape","../img/green_triangle.png","","","","","","","","","","","","",""
"","","","","","image-keyboard-response","252","307428","0.0-2.0-3.0-0.0-135.0","null","../img/green_triangle.png","null","","main","shape","../img/green_triangle.png","","","","","","","","","","","","",""
"","","","","","image-keyboard-response","253","308454","0.0-2.0-3.0-0.0-136.0","null","../img/red_triangle.png","null","","main","shape","../img/red_triangle.png","","","","","","","","","","","","",""
"","","","","","image-keyboard-response","254","309481","0.0-2.0-3.0-0.0-137.0","null","../img/red_triangle.png","null","","main","shape","../img/red_triangle.png","","","","","","","","","","","","",""
"","","","","","image-keyboard-response","255","310510","0.0-2.0-3.0-0.0-138.0","null","../img/green_circle.png","null","","main","shape","../img/green_circle.png","","","","","","","","","","","","",""
"","","","","","html-keyboard-response","256","311806","0.0-2.0-3.0-0.0-139.0","794","<div style=""font-size: 60px;"">自我</div>","j","","main","response","","100","TaskRelevant","2","false","生人","自我","../img/red_triangle.png","","生人","../img/green_triangle.png,../img/green_triangle.png,../img/red_triangle.png,../img/red_triangle.png,../img/green_circle.png","{""label_type"":""生人"",""is_match"":false,""count"":24,""colorPool"":[""green"",""green"",""red"",""red"",""red"",""red"",""green"",""green"",""green"",""green"",""red"",""green"",""red"",""green"",""red"",""green"",""red"",""red"",""green"",""red"",""red"",""green"",""red"",""green""]}","j","true"
"","","","","","html-keyboard-response","257","312112","0.0-2.0-3.0-0.0-140.0","null","<span style='color:GreenYellow; font-size: 70px;'>正确! </span>","null","","","feedback","","","","","","","","","","","","","",""
"","","","","","html-keyboard-response","258","313063","0.0-2.0-3.0-0.0-141.0","null","<div style=""font-size: 60px;"">+</div>","null","","","","","","","","","","","","","","","","",""
"","","","","","image-keyboard-response","259","313565","0.0-2.0-3.0-0.0-142.0","null","../img/red_triangle.png","null","","main","shape","../img/red_triangle.png","","","","","","","","","","","","",""
"","","","","","image-keyboard-response","260","314588","0.0-2.0-3.0-0.0-143.0","null","../img/green_triangle.png","null","","main","shape","../img/green_triangle.png","","","","","","","","","","","","",""
"","","","","","image-keyboard-response","261","315616","0.0-2.0-3.0-0.0-144.0","null","../img/green_circle.png","null","","main","shape","../img/green_circle.png","","","","","","","","","","","","",""
"","","","","","image-keyboard-response","262","316646","0.0-2.0-3.0-0.0-145.0","null","../img/green_triangle.png","null","","main","shape","../img/green_triangle.png","","","","","","","","","","","","",""
"","","","","","image-keyboard-response","263","317674","0.0-2.0-3.0-0.0-146.0","null","../img/green_triangle.png","null","","main","shape","../img/green_triangle.png","","","","","","","","","","","","",""
"","","","","","html-keyboard-response","264","319041","0.0-2.0-3.0-0.0-147.0","865","<div style=""font-size: 60px;"">自我</div>","j","","main","response","","100","TaskRelevant","2","false","生人","自我","../img/green_triangle.png","","生人","../img/red_triangle.png,../img/green_triangle.png,../img/green_circle.png,../img/green_triangle.png,../img/green_triangle.png","{""label_type"":""生人"",""is_match"":false,""count"":24,""colorPool"":[""green"",""green"",""red"",""red"",""red"",""red"",""green"",""green"",""green"",""green"",""red"",""green"",""red"",""green"",""red"",""green"",""red"",""red"",""green"",""red"",""red"",""green"",""red"",""green""]}","j","true"
"","","","","","html-keyboard-response","265","319355","0.0-2.0-3.0-0.0-148.0","null","<span style='color:GreenYellow; font-size: 70px;'>正确! </span>","null","","","feedback","","","","","","","","","","","","","",""
"","","","","","html-keyboard-response","266","319713","0.0-2.0-3.0-0.0-149.0","null","<div style=""font-size: 60px;"">+</div>","null","","","","","","","","","","","","","","","","",""
"","","","","","image-keyboard-response","267","320228","0.0-2.0-3.0-0.0-150.0","null","../img/green_triangle.png","null","","main","shape","../img/green_triangle.png","","","","","","","","","","","","",""
"","","","","","image-keyboard-response","268","321239","0.0-2.0-3.0-0.0-151.0","null","../img/green_circle.png","null","","main","shape","../img/green_circle.png","","","","","","","","","","","","",""
"","","","","","image-keyboard-response","269","322269","0.0-2.0-3.0-0.0-152.0","null","../img/red_circle.png","null","","main","shape","../img/red_circle.png","","","","","","","","","","","","",""
"","","","","","image-keyboard-response","270","323283","0.0-2.0-3.0-0.0-153.0","null","../img/green_triangle.png","null","","main","shape","../img/green_triangle.png","","","","","","","","","","","","",""
"","","","","","image-keyboard-response","271","324296","0.0-2.0-3.0-0.0-154.0","null","../img/red_circle.png","null","","main","shape","../img/red_circle.png","","","","","","","","","","","","",""
"","","","","","html-keyboard-response","272","325882","0.0-2.0-3.0-0.0-155.0","1073","<div style=""font-size: 60px;"">自我</div>","j","","main","response","","100","TaskRelevant","2","false","生人","自我","../img/green_triangle.png","","生人","../img/green_triangle.png,../img/green_circle.png,../img/red_circle.png,../img/green_triangle.png,../img/red_circle.png","{""label_type"":""生人"",""is_match"":false,""count"":24,""colorPool"":[""green"",""green"",""red"",""red"",""red"",""red"",""green"",""green"",""green"",""green"",""red"",""green"",""red"",""green"",""red"",""green"",""red"",""red"",""green"",""red"",""red"",""green"",""red"",""green""]}","j","true"
"","","","","","html-keyboard-response","273","326193","0.0-2.0-3.0-0.0-156.0","null","<span style='color:GreenYellow; font-size: 70px;'>正确! </span>","null","","","feedback","","","","","","","","","","","","","",""
"","","","","","html-keyboard-response","274","327034","0.0-2.0-3.0-0.0-157.0","null","<div style=""font-size: 60px;"">+</div>","null","","","","","","","","","","","","","","","","",""
"","","","","","image-keyboard-response","275","327535","0.0-2.0-3.0-0.0-158.0","null","../img/red_circle.png","null","","main","shape","../img/red_circle.png","","","","","","","","","","","","",""
"","","","","","image-keyboard-response","276","328563","0.0-2.0-3.0-0.0-159.0","null","../img/green_circle.png","null","","main","shape","../img/green_circle.png","","","","","","","","","","","","",""
"","","","","","image-keyboard-response","277","329577","0.0-2.0-3.0-0.0-160.0","null","../img/red_triangle.png","null","","main","shape","../img/red_triangle.png","","","","","","","","","","","","",""
"","","","","","image-keyboard-response","278","330589","0.0-2.0-3.0-0.0-161.0","null","../img/red_triangle.png","null","","main","shape","../img/red_triangle.png","","","","","","","","","","","","",""
"","","","","","html-keyboard-response","279","331917","0.0-2.0-3.0-0.0-162.0","813","<div style=""font-size: 60px;"">生人</div>","f","","main","response","","100","TaskRelevant","2","true","生人","生人","../img/red_triangle.png","","生人","../img/red_circle.png,../img/green_circle.png,../img/red_triangle.png,../img/red_triangle.png","{""label_type"":""生人"",""is_match"":true,""count"":24,""colorPool"":[""green"",""green"",""red"",""red"",""red"",""red"",""red"",""green"",""red"",""green"",""green"",""green"",""green"",""red"",""red"",""red"",""red"",""red"",""green"",""green"",""green"",""green"",""green"",""red""]}","f","true"
"","","","","","html-keyboard-response","280","332222","0.0-2.0-3.0-0.0-163.0","null","<span style='color:GreenYellow; font-size: 70px;'>正确! </span>","null","","","feedback","","","","","","","","","","","","","",""
"","","","","","html-keyboard-response","281","332594","0.0-2.0-3.0-0.0-164.0","null","<div style=""font-size: 60px;"">+</div>","null","","","","","","","","","","","","","","","","",""
"","","","","","image-keyboard-response","282","333108","0.0-2.0-3.0-0.0-165.0","null","../img/green_triangle.png","null","","main","shape","../img/green_triangle.png","","","","","","","","","","","","",""
"","","","","","image-keyboard-response","283","334136","0.0-2.0-3.0-0.0-166.0","null","../img/red_triangle.png","null","","main","shape","../img/red_triangle.png","","","","","","","","","","","","",""
"","","","","","image-keyboard-response","284","335150","0.0-2.0-3.0-0.0-167.0","null","../img/red_circle.png","null","","main","shape","../img/red_circle.png","","","","","","","","","","","","",""
"","","","","","html-keyboard-response","285","336850","0.0-2.0-3.0-0.0-168.0","1187","<div style=""font-size: 60px;"">生人</div>","f","","main","response","","100","TaskRelevant","2","true","生人","生人","../img/red_triangle.png","","生人","../img/green_triangle.png,../img/red_triangle.png,../img/red_circle.png","{""label_type"":""生人"",""is_match"":true,""count"":24,""colorPool"":[""green"",""green"",""red"",""red"",""red"",""red"",""red"",""green"",""red"",""green"",""green"",""green"",""green"",""red"",""red"",""red"",""red"",""red"",""green"",""green"",""green"",""green"",""green"",""red""]}","f","true"
"","","","","","html-keyboard-response","286","337161","0.0-2.0-3.0-0.0-169.0","null","<span style='color:GreenYellow; font-size: 70px;'>正确! </span>","null","","","feedback","","","","","","","","","","","","","",""
"","","","","","html-keyboard-response","287","337909","0.0-2.0-3.0-0.0-170.0","null","<div style=""font-size: 60px;"">+</div>","null","","","","","","","","","","","","","","","","",""
"","","","","","image-keyboard-response","288","338422","0.0-2.0-3.0-0.0-171.0","null","../img/red_triangle.png","null","","main","shape","../img/red_triangle.png","","","","","","","","","","","","",""
"","","","","","image-keyboard-response","289","339437","0.0-2.0-3.0-0.0-172.0","null","../img/green_circle.png","null","","main","shape","../img/green_circle.png","","","","","","","","","","","","",""
"","","","","","image-keyboard-response","290","340448","0.0-2.0-3.0-0.0-173.0","null","../img/green_triangle.png","null","","main","shape","../img/green_triangle.png","","","","","","","","","","","","",""
"","","","","","html-keyboard-response","291","341726","0.0-2.0-3.0-0.0-174.0","763","<div style=""font-size: 60px;"">生人</div>","j","","main","response","","100","TaskRelevant","2","false","自我","生人","../img/green_circle.png","","自我","../img/red_triangle.png,../img/green_circle.png,../img/green_triangle.png","{""label_type"":""自我"",""is_match"":false,""count"":24,""colorPool"":[""red"",""red"",""green"",""red"",""green"",""green"",""green"",""red"",""red"",""red"",""green"",""red"",""green"",""green"",""red"",""green"",""red"",""green"",""green"",""red"",""green"",""red"",""green"",""red""]}","j","true"
"","","","","","html-keyboard-response","292","342036","0.0-2.0-3.0-0.0-175.0","null","<span style='color:GreenYellow; font-size: 70px;'>正确! </span>","null","","","feedback","","","","","","","","","","","","","",""
"","","","","","html-keyboard-response","293","342504","0.0-2.0-3.0-0.0-176.0","null","<div style=""font-size: 60px;"">+</div>","null","","","","","","","","","","","","","","","","",""
"","","","","","image-keyboard-response","294","343018","0.0-2.0-3.0-0.0-177.0","null","../img/green_triangle.png","null","","main","shape","../img/green_triangle.png","","","","","","","","","","","","",""
"","","","","","image-keyboard-response","295","344044","0.0-2.0-3.0-0.0-178.0","null","../img/red_circle.png","null","","main","shape","../img/red_circle.png","","","","","","","","","","","","",""
"","","","","","image-keyboard-response","296","345072","0.0-2.0-3.0-0.0-179.0","null","../img/green_circle.png","null","","main","shape","../img/green_circle.png","","","","","","","","","","","","",""
"","","","","","image-keyboard-response","297","346099","0.0-2.0-3.0-0.0-180.0","null","../img/red_circle.png","null","","main","shape","../img/red_circle.png","","","","","","","","","","","","",""
"","","","","","html-keyboard-response","298","347331","0.0-2.0-3.0-0.0-181.0","731","<div style=""font-size: 60px;"">生人</div>","j","","main","response","","100","TaskRelevant","2","false","自我","生人","../img/green_circle.png","","自我","../img/green_triangle.png,../img/red_circle.png,../img/green_circle.png,../img/red_circle.png","{""label_type"":""自我"",""is_match"":false,""count"":24,""colorPool"":[""red"",""red"",""green"",""red"",""green"",""green"",""green"",""red"",""red"",""red"",""green"",""red"",""green"",""green"",""red"",""green"",""red"",""green"",""green"",""red"",""green"",""red"",""green"",""red""]}","j","true"
"","","","","","html-keyboard-response","299","347641","0.0-2.0-3.0-0.0-182.0","null","<span style='color:GreenYellow; font-size: 70px;'>正确! </span>","null","","","feedback","","","","","","","","","","","","","",""
"","","","","","html-keyboard-response","300","347921","0.0-2.0-3.0-0.0-183.0","null","<div style=""font-size: 60px;"">+</div>","null","","","","","","","","","","","","","","","","",""
"","","","","","image-keyboard-response","301","348436","0.0-2.0-3.0-0.0-184.0","null","../img/red_triangle.png","null","","main","shape","../img/red_triangle.png","","","","","","","","","","","","",""
"","","","","","image-keyboard-response","302","349461","0.0-2.0-3.0-0.0-185.0","null","../img/red_circle.png","null","","main","shape","../img/red_circle.png","","","","","","","","","","","","",""
"","","","","","image-keyboard-response","303","350491","0.0-2.0-3.0-0.0-186.0","null","../img/red_circle.png","null","","main","shape","../img/red_circle.png","","","","","","","","","","","","",""
"","","","","","html-keyboard-response","304","351988","0.0-2.0-3.0-0.0-187.0","984","<div style=""font-size: 60px;"">自我</div>","f","","main","response","","100","TaskRelevant","2","true","自我","自我","../img/red_circle.png","","自我","../img/red_triangle.png,../img/red_circle.png,../img/red_circle.png","{""label_type"":""自我"",""is_match"":true,""count"":24,""colorPool"":[""green"",""red"",""green"",""green"",""green"",""red"",""red"",""green"",""green"",""red"",""red"",""red"",""green"",""green"",""red"",""red"",""red"",""green"",""red"",""green"",""green"",""red"",""green"",""red""]}","f","true"
"","","","","","html-keyboard-response","305","352294","0.0-2.0-3.0-0.0-188.0","null","<span style='color:GreenYellow; font-size: 70px;'>正确! </span>","null","","","feedback","","","","","","","","","","","","","",""
"","","","","","html-keyboard-response","306","352654","0.0-2.0-3.0-0.0-189.0","null","<div style=""font-size: 60px;"">+</div>","null","","","","","","","","","","","","","","","","",""
"","","","","","image-keyboard-response","307","353169","0.0-2.0-3.0-0.0-190.0","null","../img/green_circle.png","null","","main","shape","../img/green_circle.png","","","","","","","","","","","","",""
"","","","","","image-keyboard-response","308","354193","0.0-2.0-3.0-0.0-191.0","null","../img/red_circle.png","null","","main","shape","../img/red_circle.png","","","","","","","","","","","","",""
"","","","","","image-keyboard-response","309","355223","0.0-2.0-3.0-0.0-192.0","null","../img/green_circle.png","null","","main","shape","../img/green_circle.png","","","","","","","","","","","","",""
"","","","","","image-keyboard-response","310","356251","0.0-2.0-3.0-0.0-193.0","null","../img/red_triangle.png","null","","main","shape","../img/red_triangle.png","","","","","","","","","","","","",""
"","","","","","html-keyboard-response","311","357460","0.0-2.0-3.0-0.0-194.0","695","<div style=""font-size: 60px;"">自我</div>","f","","main","response","","100","TaskRelevant","2","true","自我","自我","../img/green_circle.png","","自我","../img/green_circle.png,../img/red_circle.png,../img/green_circle.png,../img/red_triangle.png","{""label_type"":""自我"",""is_match"":true,""count"":24,""colorPool"":[""green"",""red"",""green"",""green"",""green"",""red"",""red"",""green"",""green"",""red"",""red"",""red"",""green"",""green"",""red"",""red"",""red"",""green"",""red"",""green"",""green"",""red"",""green"",""red""]}","f","true"
"","","","","","html-keyboard-response","312","357761","0.0-2.0-3.0-0.0-195.0","null","<span style='color:GreenYellow; font-size: 70px;'>正确! </span>","null","","","feedback","","","","","","","","","","","","","",""
"","","","","","html-keyboard-response","313","358242","0.0-2.0-3.0-0.0-196.0","null","<div style=""font-size: 60px;"">+</div>","null","","","","","","","","","","","","","","","","",""
"","","","","","image-keyboard-response","314","358756","0.0-2.0-3.0-0.0-197.0","null","../img/green_triangle.png","null","","main","shape","../img/green_triangle.png","","","","","","","","","","","","",""
"","","","","","image-keyboard-response","315","359757","0.0-2.0-3.0-0.0-198.0","null","../img/green_circle.png","null","","main","shape","../img/green_circle.png","","","","","","","","","","","","",""
"","","","","","image-keyboard-response","316","360782","0.0-2.0-3.0-0.0-199.0","null","../img/red_triangle.png","null","","main","shape","../img/red_triangle.png","","","","","","","","","","","","",""
"","","","","","image-keyboard-response","317","361797","0.0-2.0-3.0-0.0-200.0","null","../img/green_triangle.png","null","","main","shape","../img/green_triangle.png","","","","","","","","","","","","",""
"","","","","","image-keyboard-response","318","362808","0.0-2.0-3.0-0.0-201.0","null","../img/red_triangle.png","null","","main","shape","../img/red_triangle.png","","","","","","","","","","","","",""
"","","","","","html-keyboard-response","319","363776","0.0-2.0-3.0-0.0-202.0","466","<div style=""font-size: 60px;"">自我</div>","f","","main","response","","100","TaskRelevant","2","false","生人","自我","../img/green_triangle.png","","生人","../img/green_triangle.png,../img/green_circle.png,../img/red_triangle.png,../img/green_triangle.png,../img/red_triangle.png","{""label_type"":""生人"",""is_match"":false,""count"":24,""colorPool"":[""green"",""green"",""red"",""red"",""red"",""red"",""green"",""green"",""green"",""green"",""red"",""green"",""red"",""green"",""red"",""green"",""red"",""red"",""green"",""red"",""red"",""green"",""red"",""green""]}","j","false"
"","","","","","html-keyboard-response","320","364086","0.0-2.0-3.0-0.0-203.0","null","<span style='color:red; font-size: 70px;'>错误! </span>","null","","","feedback","","","","","","","","","","","","","",""
"","","","","","html-keyboard-response","321","364366","0.0-2.0-3.0-0.0-204.0","null","<div style=""font-size: 60px;"">+</div>","null","","","","","","","","","","","","","","","","",""
"","","","","","image-keyboard-response","322","364867","0.0-2.0-3.0-0.0-205.0","null","../img/red_triangle.png","null","","main","shape","../img/red_triangle.png","","","","","","","","","","","","",""
"","","","","","image-keyboard-response","323","365889","0.0-2.0-3.0-0.0-206.0","null","../img/red_circle.png","null","","main","shape","../img/red_circle.png","","","","","","","","","","","","",""
"","","","","","image-keyboard-response","324","366903","0.0-2.0-3.0-0.0-207.0","null","../img/green_triangle.png","null","","main","shape","../img/green_triangle.png","","","","","","","","","","","","",""
"","","","","","image-keyboard-response","325","367915","0.0-2.0-3.0-0.0-208.0","null","../img/red_circle.png","null","","main","shape","../img/red_circle.png","","","","","","","","","","","","",""
"","","","","","html-keyboard-response","326","369152","0.0-2.0-3.0-0.0-209.0","735","<div style=""font-size: 60px;"">自我</div>","j","","main","response","","100","TaskRelevant","2","false","生人","自我","../img/green_triangle.png","","生人","../img/red_triangle.png,../img/red_circle.png,../img/green_triangle.png,../img/red_circle.png","{""label_type"":""生人"",""is_match"":false,""count"":24,""colorPool"":[""green"",""green"",""red"",""red"",""red"",""red"",""green"",""green"",""green"",""green"",""red"",""green"",""red"",""green"",""red"",""green"",""red"",""red"",""green"",""red"",""red"",""green"",""red"",""green""]}","j","true"
"","","","","","html-keyboard-response","327","369460","0.0-2.0-3.0-0.0-210.0","null","<span style='color:GreenYellow; font-size: 70px;'>正确! </span>","null","","","feedback","","","","","","","","","","","","","",""
"","","","","","html-keyboard-response","328","370503","0.0-2.0-3.0-0.0-211.0","null","<div style=""font-size: 60px;"">+</div>","null","","","","","","","","","","","","","","","","",""
"","","","","","image-keyboard-response","329","371019","0.0-2.0-3.0-0.0-212.0","null","../img/red_circle.png","null","","main","shape","../img/red_circle.png","","","","","","","","","","","","",""
"","","","","","image-keyboard-response","330","372045","0.0-2.0-3.0-0.0-213.0","null","../img/green_circle.png","null","","main","shape","../img/green_circle.png","","","","","","","","","","","","",""
"","","","","","image-keyboard-response","331","373058","0.0-2.0-3.0-0.0-214.0","null","../img/red_circle.png","null","","main","shape","../img/red_circle.png","","","","","","","","","","","","",""
"","","","","","image-keyboard-response","332","374060","0.0-2.0-3.0-0.0-215.0","null","../img/green_circle.png","null","","main","shape","../img/green_circle.png","","","","","","","","","","","","",""
"","","","","","image-keyboard-response","333","375075","0.0-2.0-3.0-0.0-216.0","null","../img/green_circle.png","null","","main","shape","../img/green_circle.png","","","","","","","","","","","","",""
"","","","","","html-keyboard-response","334","376279","0.0-2.0-3.0-0.0-217.0","703","<div style=""font-size: 60px;"">生人</div>","j","","main","response","","100","TaskRelevant","2","false","自我","生人","../img/green_circle.png","","自我","../img/red_circle.png,../img/green_circle.png,../img/red_circle.png,../img/green_circle.png,../img/green_circle.png","{""label_type"":""自我"",""is_match"":false,""count"":24,""colorPool"":[""red"",""red"",""green"",""red"",""green"",""green"",""green"",""red"",""red"",""red"",""green"",""red"",""green"",""green"",""red"",""green"",""red"",""green"",""green"",""red"",""green"",""red"",""green"",""red""]}","j","true"
"","","","","","html-keyboard-response","335","376584","0.0-2.0-3.0-0.0-218.0","null","<span style='color:GreenYellow; font-size: 70px;'>正确! </span>","null","","","feedback","","","","","","","","","","","","","",""
"","","","","","html-keyboard-response","336","377097","0.0-2.0-3.0-0.0-219.0","null","<div style=""font-size: 60px;"">+</div>","null","","","","","","","","","","","","","","","","",""
"","","","","","image-keyboard-response","337","377610","0.0-2.0-3.0-0.0-220.0","null","../img/green_circle.png","null","","main","shape","../img/green_circle.png","","","","","","","","","","","","",""
"","","","","","image-keyboard-response","338","378620","0.0-2.0-3.0-0.0-221.0","null","../img/green_triangle.png","null","","main","shape","../img/green_triangle.png","","","","","","","","","","","","",""
"","","","","","image-keyboard-response","339","379649","0.0-2.0-3.0-0.0-222.0","null","../img/red_triangle.png","null","","main","shape","../img/red_triangle.png","","","","","","","","","","","","",""
"","","","","","image-keyboard-response","340","380678","0.0-2.0-3.0-0.0-223.0","null","../img/red_triangle.png","null","","main","shape","../img/red_triangle.png","","","","","","","","","","","","",""
"","","","","","image-keyboard-response","341","381707","0.0-2.0-3.0-0.0-224.0","null","../img/red_circle.png","null","","main","shape","../img/red_circle.png","","","","","","","","","","","","",""
"","","","","","html-keyboard-response","342","383144","0.0-2.0-3.0-0.0-225.0","923","<div style=""font-size: 60px;"">自我</div>","j","","main","response","","100","TaskRelevant","2","false","生人","自我","../img/red_triangle.png","","生人","../img/green_circle.png,../img/green_triangle.png,../img/red_triangle.png,../img/red_triangle.png,../img/red_circle.png","{""label_type"":""生人"",""is_match"":false,""count"":24,""colorPool"":[""green"",""green"",""red"",""red"",""red"",""red"",""green"",""green"",""green"",""green"",""red"",""green"",""red"",""green"",""red"",""green"",""red"",""red"",""green"",""red"",""red"",""green"",""red"",""green""]}","j","true"
"","","","","","html-keyboard-response","343","383450","0.0-2.0-3.0-0.0-226.0","null","<span style='color:GreenYellow; font-size: 70px;'>正确! </span>","null","","","feedback","","","","","","","","","","","","","",""
"","","","","","html-keyboard-response","344","383763","0.0-2.0-3.0-0.0-227.0","null","<div style=""font-size: 60px;"">+</div>","null","","","","","","","","","","","","","","","","",""
"","","","","","image-keyboard-response","345","384279","0.0-2.0-3.0-0.0-228.0","null","../img/green_circle.png","null","","main","shape","../img/green_circle.png","","","","","","","","","","","","",""
"","","","","","image-keyboard-response","346","385289","0.0-2.0-3.0-0.0-229.0","null","../img/green_circle.png","null","","main","shape","../img/green_circle.png","","","","","","","","","","","","",""
"","","","","","image-keyboard-response","347","386318","0.0-2.0-3.0-0.0-230.0","null","../img/green_triangle.png","null","","main","shape","../img/green_triangle.png","","","","","","","","","","","","",""
"","","","","","image-keyboard-response","348","387346","0.0-2.0-3.0-0.0-231.0","null","../img/green_circle.png","null","","main","shape","../img/green_circle.png","","","","","","","","","","","","",""
"","","","","","html-keyboard-response","349","388700","0.0-2.0-3.0-0.0-232.0","839","<div style=""font-size: 60px;"">自我</div>","j","","main","response","","100","TaskRelevant","2","false","生人","自我","../img/green_triangle.png","","生人","../img/green_circle.png,../img/green_circle.png,../img/green_triangle.png,../img/green_circle.png","{""label_type"":""生人"",""is_match"":false,""count"":24,""colorPool"":[""green"",""green"",""red"",""red"",""red"",""red"",""green"",""green"",""green"",""green"",""red"",""green"",""red"",""green"",""red"",""green"",""red"",""red"",""green"",""red"",""red"",""green"",""red"",""green""]}","j","true"
"","","","","","html-keyboard-response","350","389013","0.0-2.0-3.0-0.0-233.0","null","<span style='color:GreenYellow; font-size: 70px;'>正确! </span>","null","","","feedback","","","","","","","","","","","","","",""
"","","","","","html-keyboard-response","351","389715","0.0-2.0-3.0-0.0-234.0","null","<div style=""font-size: 60px;"">+</div>","null","","","","","","","","","","","","","","","","",""
"","","","","","image-keyboard-response","352","390229","0.0-2.0-3.0-0.0-235.0","null","../img/green_circle.png","null","","main","shape","../img/green_circle.png","","","","","","","","","","","","",""
"","","","","","image-keyboard-response","353","391257","0.0-2.0-3.0-0.0-236.0","null","../img/green_circle.png","null","","main","shape","../img/green_circle.png","","","","","","","","","","","","",""
"","","","","","image-keyboard-response","354","392272","0.0-2.0-3.0-0.0-237.0","null","../img/red_circle.png","null","","main","shape","../img/red_circle.png","","","","","","","","","","","","",""
"","","","","","image-keyboard-response","355","393286","0.0-2.0-3.0-0.0-238.0","null","../img/red_triangle.png","null","","main","shape","../img/red_triangle.png","","","","","","","","","","","","",""
"","","","","","image-keyboard-response","356","394298","0.0-2.0-3.0-0.0-239.0","null","../img/green_circle.png","null","","main","shape","../img/green_circle.png","","","","","","","","","","","","",""
"","","","","","html-keyboard-response","357","395505","0.0-2.0-3.0-0.0-240.0","691","<div style=""font-size: 60px;"">自我</div>","j","","main","response","","100","TaskRelevant","2","false","生人","自我","../img/red_triangle.png","","生人","../img/green_circle.png,../img/green_circle.png,../img/red_circle.png,../img/red_triangle.png,../img/green_circle.png","{""label_type"":""生人"",""is_match"":false,""count"":24,""colorPool"":[""green"",""green"",""red"",""red"",""red"",""red"",""green"",""green"",""green"",""green"",""red"",""green"",""red"",""green"",""red"",""green"",""red"",""red"",""green"",""red"",""red"",""green"",""red"",""green""]}","j","true"
"","","","","","html-keyboard-response","358","395814","0.0-2.0-3.0-0.0-241.0","null","<span style='color:GreenYellow; font-size: 70px;'>正确! </span>","null","","","feedback","","","","","","","","","","","","","",""
"","","","","","html-keyboard-response","359","396653","0.0-2.0-3.0-0.0-242.0","null","<div style=""font-size: 60px;"">+</div>","null","","","","","","","","","","","","","","","","",""
"","","","","","image-keyboard-response","360","397156","0.0-2.0-3.0-0.0-243.0","null","../img/red_triangle.png","null","","main","shape","../img/red_triangle.png","","","","","","","","","","","","",""
"","","","","","image-keyboard-response","361","398177","0.0-2.0-3.0-0.0-244.0","null","../img/green_circle.png","null","","main","shape","../img/green_circle.png","","","","","","","","","","","","",""
"","","","","","image-keyboard-response","362","399205","0.0-2.0-3.0-0.0-245.0","null","../img/red_circle.png","null","","main","shape","../img/red_circle.png","","","","","","","","","","","","",""
"","","","","","image-keyboard-response","363","400219","0.0-2.0-3.0-0.0-246.0","null","../img/red_circle.png","null","","main","shape","../img/red_circle.png","","","","","","","","","","","","",""
"","","","","","html-keyboard-response","364","401394","0.0-2.0-3.0-0.0-247.0","660","<div style=""font-size: 60px;"">生人</div>","j","","main","response","","100","TaskRelevant","2","false","自我","生人","../img/red_circle.png","","自我","../img/red_triangle.png,../img/green_circle.png,../img/red_circle.png,../img/red_circle.png","{""label_type"":""自我"",""is_match"":false,""count"":24,""colorPool"":[""red"",""red"",""green"",""red"",""green"",""green"",""green"",""red"",""red"",""red"",""green"",""red"",""green"",""green"",""red"",""green"",""red"",""green"",""green"",""red"",""green"",""red"",""green"",""red""]}","j","true"
"","","","","","html-keyboard-response","365","401698","0.0-2.0-3.0-0.0-248.0","null","<span style='color:GreenYellow; font-size: 70px;'>正确! </span>","null","","","feedback","","","","","","","","","","","","","",""
"","","","","","html-keyboard-response","366","402011","0.0-2.0-3.0-0.0-249.0","null","<div style=""font-size: 60px;"">+</div>","null","","","","","","","","","","","","","","","","",""
"","","","","","image-keyboard-response","367","402524","0.0-2.0-3.0-0.0-250.0","null","../img/red_triangle.png","null","","main","shape","../img/red_triangle.png","","","","","","","","","","","","",""
"","","","","","image-keyboard-response","368","403548","0.0-2.0-3.0-0.0-251.0","null","../img/red_circle.png","null","","main","shape","../img/red_circle.png","","","","","","","","","","","","",""
"","","","","","image-keyboard-response","369","404579","0.0-2.0-3.0-0.0-252.0","null","../img/red_triangle.png","null","","main","shape","../img/red_triangle.png","","","","","","","","","","","","",""
"","","","","","html-keyboard-response","370","406512","0.0-2.0-3.0-0.0-253.0","1419","<div style=""font-size: 60px;"">生人</div>","f","","main","response","","100","TaskRelevant","2","false","自我","生人","../img/red_circle.png","","自我","../img/red_triangle.png,../img/red_circle.png,../img/red_triangle.png","{""label_type"":""自我"",""is_match"":false,""count"":24,""colorPool"":[""red"",""red"",""green"",""red"",""green"",""green"",""green"",""red"",""red"",""red"",""green"",""red"",""green"",""green"",""red"",""green"",""red"",""green"",""green"",""red"",""green"",""red"",""green"",""red""]}","j","false"
"","","","","","html-keyboard-response","371","406822","0.0-2.0-3.0-0.0-254.0","null","<span style='color:red; font-size: 70px;'>错误! </span>","null","","","feedback","","","","","","","","","","","","","",""
"","","","","","html-keyboard-response","372","407212","0.0-2.0-3.0-0.0-255.0","null","<div style=""font-size: 60px;"">+</div>","null","","","","","","","","","","","","","","","","",""
"","","","","","image-keyboard-response","373","407714","0.0-2.0-3.0-0.0-256.0","null","../img/red_triangle.png","null","","main","shape","../img/red_triangle.png","","","","","","","","","","","","",""
"","","","","","image-keyboard-response","374","408743","0.0-2.0-3.0-0.0-257.0","null","../img/red_circle.png","null","","main","shape","../img/red_circle.png","","","","","","","","","","","","",""
"","","","","","image-keyboard-response","375","409757","0.0-2.0-3.0-0.0-258.0","null","../img/red_triangle.png","null","","main","shape","../img/red_triangle.png","","","","","","","","","","","","",""
"","","","","","image-keyboard-response","376","410760","0.0-2.0-3.0-0.0-259.0","null","../img/green_circle.png","null","","main","shape","../img/green_circle.png","","","","","","","","","","","","",""
"","","","","","image-keyboard-response","377","411775","0.0-2.0-3.0-0.0-260.0","null","../img/red_triangle.png","null","","main","shape","../img/red_triangle.png","","","","","","","","","","","","",""
"","","","","","html-keyboard-response","378","413041","0.0-2.0-3.0-0.0-261.0","764","<div style=""font-size: 60px;"">自我</div>","j","","main","response","","100","TaskRelevant","2","true","自我","自我","../img/green_circle.png","","自我","../img/red_triangle.png,../img/red_circle.png,../img/red_triangle.png,../img/green_circle.png,../img/red_triangle.png","{""label_type"":""自我"",""is_match"":true,""count"":24,""colorPool"":[""green"",""red"",""green"",""green"",""green"",""red"",""red"",""green"",""green"",""red"",""red"",""red"",""green"",""green"",""red"",""red"",""red"",""green"",""red"",""green"",""green"",""red"",""green"",""red""]}","f","false"
"","","","","","html-keyboard-response","379","413350","0.0-2.0-3.0-0.0-262.0","null","<span style='color:red; font-size: 70px;'>错误! </span>","null","","","feedback","","","","","","","","","","","","","",""
"","","","","","html-keyboard-response","380","414388","0.0-2.0-3.0-0.0-263.0","null","<div style=""font-size: 60px;"">+</div>","null","","","","","","","","","","","","","","","","",""
"","","","","","image-keyboard-response","381","414889","0.0-2.0-3.0-0.0-264.0","null","../img/green_circle.png","null","","main","shape","../img/green_circle.png","","","","","","","","","","","","",""
"","","","","","image-keyboard-response","382","415916","0.0-2.0-3.0-0.0-265.0","null","../img/red_triangle.png","null","","main","shape","../img/red_triangle.png","","","","","","","","","","","","",""
"","","","","","image-keyboard-response","383","416946","0.0-2.0-3.0-0.0-266.0","null","../img/red_triangle.png","null","","main","shape","../img/red_triangle.png","","","","","","","","","","","","",""
"","","","","","html-keyboard-response","384","418339","0.0-2.0-3.0-0.0-267.0","891","<div style=""font-size: 60px;"">生人</div>","f","","main","response","","100","TaskRelevant","2","true","生人","生人","../img/red_triangle.png","","生人","../img/green_circle.png,../img/red_triangle.png,../img/red_triangle.png","{""label_type"":""生人"",""is_match"":true,""count"":24,""colorPool"":[""green"",""green"",""red"",""red"",""red"",""red"",""red"",""green"",""red"",""green"",""green"",""green"",""green"",""red"",""red"",""red"",""red"",""red"",""green"",""green"",""green"",""green"",""green"",""red""]}","f","true"
"","","","","","html-keyboard-response","385","418644","0.0-2.0-3.0-0.0-268.0","null","<span style='color:GreenYellow; font-size: 70px;'>正确! </span>","null","","","feedback","","","","","","","","","","","","","",""
"","","","","","html-keyboard-response","386","419378","0.0-2.0-3.0-0.0-269.0","null","<div style=""font-size: 60px;"">+</div>","null","","","","","","","","","","","","","","","","",""
"","","","","","image-keyboard-response","387","419890","0.0-2.0-3.0-0.0-270.0","null","../img/green_circle.png","null","","main","shape","../img/green_circle.png","","","","","","","","","","","","",""
"","","","","","image-keyboard-response","388","420899","0.0-2.0-3.0-0.0-271.0","null","../img/green_triangle.png","null","","main","shape","../img/green_triangle.png","","","","","","","","","","","","",""
"","","","","","image-keyboard-response","389","421905","0.0-2.0-3.0-0.0-272.0","null","../img/red_triangle.png","null","","main","shape","../img/red_triangle.png","","","","","","","","","","","","",""
