"success","timeout","failed_images","failed_audio","failed_video","trial_type","trial_index","time_elapsed","internal_node_id","rt","stimulus","response","view_history","phase","stage","shape","subj_idx","TaskRelevance","CognitiveLoad","isMatch","Identity","display_label","nBack_shape","nBack_color","nBack_label","sequence","condition_type","correct_response","correct"
"true","false","[]","[]","[]","preload","0","5","0.0-0.0","","","","","","","","","","","","","","","","","","","",""
"","","","","","html-keyboard-response","1","93855","0.0-1.0","93849","
        <p>您好，欢迎参加本实验。</p>
        <p>本实验由4个按键任务组成, 预计用时50分钟</p>
        <p>请您根据指导语完成任务。</p>
        <p><div style = ""color: green""><按任意键至下页></div> </p>
    "," ","","","","","","","","","","","","","","","","",""
"","","","","","instructions","2","123575","0.0-2.0-0.0","29719","","","[{""page_index"":0,""viewing_time"":11091},{""page_index"":1,""viewing_time"":13419},{""page_index"":2,""viewing_time"":1720},{""page_index"":1,""viewing_time"":961},{""page_index"":2,""viewing_time"":1496},{""page_index"":3,""viewing_time"":1032}]","","","","","","","","","","","","","","","",""
"","","","","","html-keyboard-response","3","124218","0.0-2.0-1.0-0.0-0.0","null","<div style=""font-size: 60px;"">+</div>","null","","","","","","","","","","","","","","","","",""
"","","","","","image-keyboard-response","4","124728","0.0-2.0-1.0-0.0-1.0","null","../img/triangle.png","null","","prac","shape","../img/triangle.png","","","","","","","","","","","","",""
"","","","","","image-keyboard-response","5","125755","0.0-2.0-1.0-0.0-2.0","null","../img/circle.png","null","","prac","shape","../img/circle.png","","","","","","","","","","","","",""
"","","","","","image-keyboard-response","6","126782","0.0-2.0-1.0-0.0-3.0","null","../img/circle.png","null","","prac","shape","../img/circle.png","","","","","","","","","","","","",""
"","","","","","html-keyboard-response","7","128288","0.0-2.0-1.0-0.0-4.0","993","<div style=""font-size: 60px;"">生人</div>","f","","prac","response","","100","TaskRelevant","2","false","生人","[""生人""]","../img/circle.png","红色","自我","../img/triangle.png,../img/circle.png,../img/circle.png","{""label_type"":""生人"",""is_match"":false,""count"":1}","j","false"
"","","","","","html-keyboard-response","8","128789","0.0-2.0-1.0-0.0-5.0","null","<span style='color:red; font-size: 70px;'>错误! </span>","null","","","feedback","","","","","","","","","","","","","",""
"","","","","","html-keyboard-response","9","129556","0.0-2.0-1.0-0.0-6.0","null","<div style=""font-size: 60px;"">+</div>","null","","","","","","","","","","","","","","","","",""
"","","","","","image-keyboard-response","10","130068","0.0-2.0-1.0-0.0-7.0","null","../img/triangle.png","null","","prac","shape","../img/triangle.png","","","","","","","","","","","","",""
"","","","","","image-keyboard-response","11","131096","0.0-2.0-1.0-0.0-8.0","null","../img/circle.png","null","","prac","shape","../img/circle.png","","","","","","","","","","","","",""
"","","","","","image-keyboard-response","12","132126","0.0-2.0-1.0-0.0-9.0","null","../img/triangle.png","null","","prac","shape","../img/triangle.png","","","","","","","","","","","","",""
"","","","","","image-keyboard-response","13","133156","0.0-2.0-1.0-0.0-10.0","null","../img/triangle.png","null","","prac","shape","../img/triangle.png","","","","","","","","","","","","",""
"","","","","","image-keyboard-response","14","134181","0.0-2.0-1.0-0.0-11.0","null","../img/triangle.png","null","","prac","shape","../img/triangle.png","","","","","","","","","","","","",""
"","","","","","html-keyboard-response","15","135688","0.0-2.0-1.0-0.0-12.0","990","<div style=""font-size: 60px;"">生人</div>","f","","prac","response","","100","TaskRelevant","2","true","生人","生人","../img/triangle.png","绿色","生人","../img/triangle.png,../img/circle.png,../img/triangle.png,../img/triangle.png,../img/triangle.png","{""label_type"":""生人"",""is_match"":true,""count"":1}","f","true"
"","","","","","html-keyboard-response","16","136198","0.0-2.0-1.0-0.0-13.0","null","<span style='color:GreenYellow; font-size: 70px;'>正确! </span>","null","","","feedback","","","","","","","","","","","","","",""
"","","","","","html-keyboard-response","17","136710","0.0-2.0-1.0-0.0-14.0","null","<div style=""font-size: 60px;"">+</div>","null","","","","","","","","","","","","","","","","",""
"","","","","","image-keyboard-response","18","137223","0.0-2.0-1.0-0.0-15.0","null","../img/triangle.png","null","","prac","shape","../img/triangle.png","","","","","","","","","","","","",""
"","","","","","image-keyboard-response","19","138225","0.0-2.0-1.0-0.0-16.0","null","../img/circle.png","null","","prac","shape","../img/circle.png","","","","","","","","","","","","",""
"","","","","","image-keyboard-response","20","139255","0.0-2.0-1.0-0.0-17.0","null","../img/circle.png","null","","prac","shape","../img/circle.png","","","","","","","","","","","","",""
"","","","","","image-keyboard-response","21","140280","0.0-2.0-1.0-0.0-18.0","null","../img/circle.png","null","","prac","shape","../img/circle.png","","","","","","","","","","","","",""
"","","","","","html-keyboard-response","22","141372","0.0-2.0-1.0-0.0-19.0","578","<div style=""font-size: 60px;"">自我</div>","f","","prac","response","","100","TaskRelevant","2","true","自我","自我","../img/circle.png","红色","自我","../img/triangle.png,../img/circle.png,../img/circle.png,../img/circle.png","{""label_type"":""自我"",""is_match"":true,""count"":1}","f","true"
"","","","","","html-keyboard-response","23","141877","0.0-2.0-1.0-0.0-20.0","null","<span style='color:GreenYellow; font-size: 70px;'>正确! </span>","null","","","feedback","","","","","","","","","","","","","",""
"","","","","","html-keyboard-response","24","142265","0.0-2.0-1.0-0.0-21.0","null","<div style=""font-size: 60px;"">+</div>","null","","","","","","","","","","","","","","","","",""
"","","","","","image-keyboard-response","25","142778","0.0-2.0-1.0-0.0-22.0","null","../img/triangle.png","null","","prac","shape","../img/triangle.png","","","","","","","","","","","","",""
"","","","","","image-keyboard-response","26","143796","0.0-2.0-1.0-0.0-23.0","null","../img/circle.png","null","","prac","shape","../img/circle.png","","","","","","","","","","","","",""
"","","","","","image-keyboard-response","27","144812","0.0-2.0-1.0-0.0-24.0","null","../img/circle.png","null","","prac","shape","../img/circle.png","","","","","","","","","","","","",""
"","","","","","image-keyboard-response","28","145836","0.0-2.0-1.0-0.0-25.0","null","../img/triangle.png","null","","prac","shape","../img/triangle.png","","","","","","","","","","","","",""
"","","","","","image-keyboard-response","29","146866","0.0-2.0-1.0-0.0-26.0","null","../img/circle.png","null","","prac","shape","../img/circle.png","","","","","","","","","","","","",""
"","","","","","html-keyboard-response","30","148615","0.0-2.0-1.0-0.0-27.0","1234","<div style=""font-size: 60px;"">自我</div>","j","","prac","response","","100","TaskRelevant","2","false","自我","[""自我""]","../img/triangle.png","绿色","生人","../img/triangle.png,../img/circle.png,../img/circle.png,../img/triangle.png,../img/circle.png","{""label_type"":""自我"",""is_match"":false,""count"":1}","j","true"
"","","","","","html-keyboard-response","31","149122","0.0-2.0-1.0-0.0-28.0","null","<span style='color:GreenYellow; font-size: 70px;'>正确! </span>","null","","","feedback","","","","","","","","","","","","","",""
"","","","","","html-keyboard-response","32","190440","0.0-2.0-1.0-1.0","41317","
    <style>
        .context { color: white; font-size: 35px; line-height: 40px; }
    </style>
    <div>
        <p class='context'>您正确回答了 75% 的试次。</p>
        <p class='context'>您的平均反应时为 934 毫秒。</p>
        <p class='context'>按任意键进入下一页</p>
    </div>
"," ","","","","","","","","","","","","","","","","",""
"","","","","","html-keyboard-response","33","191557","0.0-2.0-2.0","1116","
        <style>
            .context { color: white; font-size: 35px; line-height: 40px; }
            .highlight { color: lightgreen; font-size: 35px; }
            .footer { font-size: 22px; line-height: 40px; }
        </style>
        <div>
            <p class=""context"">恭喜您完成练习。按任意键进入正式实验。</p>
            <p class=""highlight"">正式实验与练习要求相同，请您尽可能又快又准地进行按键反应</p>
            <p class=""footer"">请将您左手和右手的食指放在电脑键盘的相应键位上进行按键。</p>
        </div>
    "," ","","","","","","","","","","","","","","","","",""
"","","","","","html-keyboard-response","34","192645","0.0-2.0-3.0-0.0-0.0","null","<div style=""font-size: 60px;"">+</div>","null","","","","","","","","","","","","","","","","",""
"","","","","","image-keyboard-response","35","193158","0.0-2.0-3.0-0.0-1.0","null","../img/triangle.png","null","","main","shape","../img/triangle.png","","","","","","","","","","","","",""
"","","","","","image-keyboard-response","36","194188","0.0-2.0-3.0-0.0-2.0","null","../img/triangle.png","null","","main","shape","../img/triangle.png","","","","","","","","","","","","",""
"","","","","","image-keyboard-response","37","195213","0.0-2.0-3.0-0.0-3.0","null","../img/triangle.png","null","","main","shape","../img/triangle.png","","","","","","","","","","","","",""
"","","","","","image-keyboard-response","38","196241","0.0-2.0-3.0-0.0-4.0","null","../img/triangle.png","null","","main","shape","../img/triangle.png","","","","","","","","","","","","",""
"","","","","","html-keyboard-response","39","197580","0.0-2.0-3.0-0.0-5.0","824","<div style=""font-size: 60px;"">生人</div>","f","","main","response","","100","TaskRelevant","2","true","生人","生人","../img/triangle.png","绿色","生人","../img/triangle.png,../img/triangle.png,../img/triangle.png,../img/triangle.png","{""label_type"":""生人"",""is_match"":true,""count"":1}","f","true"
"","","","","","html-keyboard-response","40","198082","0.0-2.0-3.0-0.0-6.0","null","<span style='color:GreenYellow; font-size: 70px;'>正确! </span>","null","","","feedback","","","","","","","","","","","","","",""
"","","","","","html-keyboard-response","41","198567","0.0-2.0-3.0-0.0-7.0","null","<div style=""font-size: 60px;"">+</div>","null","","","","","","","","","","","","","","","","",""
"","","","","","image-keyboard-response","42","199079","0.0-2.0-3.0-0.0-8.0","null","../img/triangle.png","null","","main","shape","../img/triangle.png","","","","","","","","","","","","",""
"","","","","","image-keyboard-response","43","200108","0.0-2.0-3.0-0.0-9.0","null","../img/circle.png","null","","main","shape","../img/circle.png","","","","","","","","","","","","",""
"","","","","","image-keyboard-response","44","201136","0.0-2.0-3.0-0.0-10.0","null","../img/triangle.png","null","","main","shape","../img/triangle.png","","","","","","","","","","","","",""
"","","","","","image-keyboard-response","45","202161","0.0-2.0-3.0-0.0-11.0","null","../img/circle.png","null","","main","shape","../img/circle.png","","","","","","","","","","","","",""
"","","","","","html-keyboard-response","46","203178","0.0-2.0-3.0-0.0-12.0","503","<div style=""font-size: 60px;"">自我</div>","j","","main","response","","100","TaskRelevant","2","false","自我","[""自我""]","../img/triangle.png","绿色","生人","../img/triangle.png,../img/circle.png,../img/triangle.png,../img/circle.png","{""label_type"":""自我"",""is_match"":false,""count"":1}","j","true"
"","","","","","html-keyboard-response","47","203684","0.0-2.0-3.0-0.0-13.0","null","<span style='color:GreenYellow; font-size: 70px;'>正确! </span>","null","","","feedback","","","","","","","","","","","","","",""
"","","","","","html-keyboard-response","48","204385","0.0-2.0-3.0-0.0-14.0","null","<div style=""font-size: 60px;"">+</div>","null","","","","","","","","","","","","","","","","",""
"","","","","","image-keyboard-response","49","204889","0.0-2.0-3.0-0.0-15.0","null","../img/triangle.png","null","","main","shape","../img/triangle.png","","","","","","","","","","","","",""
"","","","","","image-keyboard-response","50","205912","0.0-2.0-3.0-0.0-16.0","null","../img/circle.png","null","","main","shape","../img/circle.png","","","","","","","","","","","","",""
"","","","","","image-keyboard-response","51","206932","0.0-2.0-3.0-0.0-17.0","null","../img/circle.png","null","","main","shape","../img/circle.png","","","","","","","","","","","","",""
"","","","","","html-keyboard-response","52","207892","0.0-2.0-3.0-0.0-18.0","445","<div style=""font-size: 60px;"">生人</div>","j","","main","response","","100","TaskRelevant","2","false","生人","[""生人""]","../img/circle.png","红色","自我","../img/triangle.png,../img/circle.png,../img/circle.png","{""label_type"":""生人"",""is_match"":false,""count"":1}","j","true"
"","","","","","html-keyboard-response","53","208401","0.0-2.0-3.0-0.0-19.0","null","<span style='color:GreenYellow; font-size: 70px;'>正确! </span>","null","","","feedback","","","","","","","","","","","","","",""
"","","","","","html-keyboard-response","54","209132","0.0-2.0-3.0-0.0-20.0","null","<div style=""font-size: 60px;"">+</div>","null","","","","","","","","","","","","","","","","",""
"","","","","","image-keyboard-response","55","209646","0.0-2.0-3.0-0.0-21.0","null","../img/triangle.png","null","","main","shape","../img/triangle.png","","","","","","","","","","","","",""
"","","","","","image-keyboard-response","56","210660","0.0-2.0-3.0-0.0-22.0","null","../img/circle.png","null","","main","shape","../img/circle.png","","","","","","","","","","","","",""
"","","","","","image-keyboard-response","57","211687","0.0-2.0-3.0-0.0-23.0","null","../img/circle.png","null","","main","shape","../img/circle.png","","","","","","","","","","","","",""
"","","","","","image-keyboard-response","58","212716","0.0-2.0-3.0-0.0-24.0","null","../img/triangle.png","null","","main","shape","../img/triangle.png","","","","","","","","","","","","",""
"","","","","","html-keyboard-response","59","213928","0.0-2.0-3.0-0.0-25.0","697","<div style=""font-size: 60px;"">自我</div>","f","","main","response","","100","TaskRelevant","2","true","自我","自我","../img/circle.png","红色","自我","../img/triangle.png,../img/circle.png,../img/circle.png,../img/triangle.png","{""label_type"":""自我"",""is_match"":true,""count"":1}","f","true"
"","","","","","html-keyboard-response","60","214433","0.0-2.0-3.0-0.0-26.0","null","<span style='color:GreenYellow; font-size: 70px;'>正确! </span>","null","","","feedback","","","","","","","","","","","","","",""
"","","","","","html-keyboard-response","61","215460","0.0-2.0-3.0-1.0","1025","<style>.context{color:white; font-size: 35px; line-height:40px}</style>                          <div><p class='context'>您正确回答了100% 的试次。</p><p class='context'>您的平均反应时为617毫秒。</p><p class='context'>请按任意键进入休息</p></div>"," ","","","","","","","","","","","","","","","","",""
"","","","","","html-button-response","62","217423","0.0-2.0-3.0-2.0","1962","
                    <p>当前任务中，您还剩余0组实验</p>
                    <p>现在是休息时间，当您结束休息后，您可以点击 结束休息 按钮 继续</p>
                    <p>建议休息时间还剩余<span id=""iii"">60</span>秒</p>","0","","","","","","","","","","","","","","","","",""
"","","","","","html-keyboard-response","63","218318","0.0-2.0-4.0","894","
            <div style=""text-align: center; color: white; font-size: 35px; line-height: 40px;"">
                <p>恭喜您完成任务1, 接下来您将进入任务2。</p>
                <p style=""color: lightgreen; margin-top: 30px;"">按任意键继续</p>
            </div>
        "," ","","","","","","","","","","","","","","","","",""
"","","","","","instructions","64","223238","0.0-3.0-0.0","4920","","","[{""page_index"":0,""viewing_time"":1832},{""page_index"":1,""viewing_time"":1145},{""page_index"":2,""viewing_time"":1271},{""page_index"":3,""viewing_time"":671}]","","","","","","","","","","","","","","","",""
"","","","","","html-keyboard-response","65","223440","0.0-3.0-1.0-0.0-0.0","null","<div style=""font-size: 60px;"">+</div>","null","","","","","","","","","","","","","","","","",""
"","","","","","image-keyboard-response","66","223950","0.0-3.0-1.0-0.0-1.0","null","../img/triangle.png","null","","prac","shape","../img/triangle.png","","","","","","","","","","","","",""
"","","","","","image-keyboard-response","67","224975","0.0-3.0-1.0-0.0-2.0","null","../img/triangle.png","null","","prac","shape","../img/triangle.png","","","","","","","","","","","","",""
"","","","","","image-keyboard-response","68","225992","0.0-3.0-1.0-0.0-3.0","null","../img/circle.png","null","","prac","shape","../img/circle.png","","","","","","","","","","","","",""
"","","","","","image-keyboard-response","69","227021","0.0-3.0-1.0-0.0-4.0","null","../img/circle.png","null","","prac","shape","../img/circle.png","","","","","","","","","","","","",""
"","","","","","image-keyboard-response","70","228051","0.0-3.0-1.0-0.0-5.0","null","../img/circle.png","null","","prac","shape","../img/circle.png","","","","","","","","","","","","",""
"","","","","","html-keyboard-response","71","230423","0.0-3.0-1.0-0.0-6.0","1869","<div style=""font-size: 60px;"">自我</div>","f","","prac","response","","100","TaskRelevant","1","true","生人","自我","../img/circle.png","红色","自我","../img/triangle.png,../img/triangle.png,../img/circle.png,../img/circle.png,../img/circle.png","{""label_type"":""生人"",""is_match"":true,""count"":1}","f","true"
"","","","","","html-keyboard-response","72","230933","0.0-3.0-1.0-0.0-7.0","null","<span class='add_' style='color:yellow; font-size: 70px;'> 太慢! </span>","null","","","feedback","","","","","","","","","","","","","",""
"","","","","","html-keyboard-response","73","231980","0.0-3.0-1.0-0.0-8.0","null","<div style=""font-size: 60px;"">+</div>","null","","","","","","","","","","","","","","","","",""
"","","","","","image-keyboard-response","74","232495","0.0-3.0-1.0-0.0-9.0","null","../img/circle.png","null","","prac","shape","../img/circle.png","","","","","","","","","","","","",""
"","","","","","image-keyboard-response","75","233522","0.0-3.0-1.0-0.0-10.0","null","../img/triangle.png","null","","prac","shape","../img/triangle.png","","","","","","","","","","","","",""
"","","","","","image-keyboard-response","76","234552","0.0-3.0-1.0-0.0-11.0","null","../img/circle.png","null","","prac","shape","../img/circle.png","","","","","","","","","","","","",""
"","","","","","image-keyboard-response","77","235577","0.0-3.0-1.0-0.0-12.0","null","../img/circle.png","null","","prac","shape","../img/circle.png","","","","","","","","","","","","",""
"","","","","","image-keyboard-response","78","236600","0.0-3.0-1.0-0.0-13.0","null","../img/triangle.png","null","","prac","shape","../img/triangle.png","","","","","","","","","","","","",""
"","","","","","html-keyboard-response","79","237827","0.0-3.0-1.0-0.0-14.0","713","<div style=""font-size: 60px;"">生人</div>","f","","prac","response","","100","TaskRelevant","1","true","自我","生人","../img/triangle.png","绿色","生人","../img/circle.png,../img/triangle.png,../img/circle.png,../img/circle.png,../img/triangle.png","{""label_type"":""自我"",""is_match"":true,""count"":1}","f","true"
"","","","","","html-keyboard-response","80","238329","0.0-3.0-1.0-0.0-15.0","null","<span style='color:GreenYellow; font-size: 70px;'>正确! </span>","null","","","feedback","","","","","","","","","","","","","",""
"","","","","","html-keyboard-response","81","238852","0.0-3.0-1.0-0.0-16.0","null","<div style=""font-size: 60px;"">+</div>","null","","","","","","","","","","","","","","","","",""
"","","","","","image-keyboard-response","82","239367","0.0-3.0-1.0-0.0-17.0","null","../img/circle.png","null","","prac","shape","../img/circle.png","","","","","","","","","","","","",""
"","","","","","image-keyboard-response","83","240380","0.0-3.0-1.0-0.0-18.0","null","../img/circle.png","null","","prac","shape","../img/circle.png","","","","","","","","","","","","",""
"","","","","","image-keyboard-response","84","241405","0.0-3.0-1.0-0.0-19.0","null","../img/circle.png","null","","prac","shape","../img/circle.png","","","","","","","","","","","","",""
"","","","","","image-keyboard-response","85","242430","0.0-3.0-1.0-0.0-20.0","null","../img/triangle.png","null","","prac","shape","../img/triangle.png","","","","","","","","","","","","",""
"","","","","","html-keyboard-response","86","243687","0.0-3.0-1.0-0.0-21.0","741","<div style=""font-size: 60px;"">自我</div>","f","","prac","response","","100","TaskRelevant","1","false","生人","[""自我""]","../img/triangle.png","绿色","生人","../img/circle.png,../img/circle.png,../img/circle.png,../img/triangle.png","{""label_type"":""生人"",""is_match"":false,""count"":1}","j","false"
"","","","","","html-keyboard-response","87","244187","0.0-3.0-1.0-0.0-22.0","null","<span style='color:red; font-size: 70px;'>错误! </span>","null","","","feedback","","","","","","","","","","","","","",""
"","","","","","html-keyboard-response","88","244811","0.0-3.0-1.0-0.0-23.0","null","<div style=""font-size: 60px;"">+</div>","null","","","","","","","","","","","","","","","","",""
"","","","","","image-keyboard-response","89","245326","0.0-3.0-1.0-0.0-24.0","null","../img/triangle.png","null","","prac","shape","../img/triangle.png","","","","","","","","","","","","",""
"","","","","","image-keyboard-response","90","246350","0.0-3.0-1.0-0.0-25.0","null","../img/triangle.png","null","","prac","shape","../img/triangle.png","","","","","","","","","","","","",""
"","","","","","image-keyboard-response","91","247374","0.0-3.0-1.0-0.0-26.0","null","../img/triangle.png","null","","prac","shape","../img/triangle.png","","","","","","","","","","","","",""
"","","","","","html-keyboard-response","92","248288","0.0-3.0-1.0-0.0-27.0","398","<div style=""font-size: 60px;"">自我</div>","f","","prac","response","","100","TaskRelevant","1","false","自我","[""自我""]","../img/triangle.png","绿色","生人","../img/triangle.png,../img/triangle.png,../img/triangle.png","{""label_type"":""自我"",""is_match"":false,""count"":1}","j","false"
"","","","","","html-keyboard-response","93","248792","0.0-3.0-1.0-0.0-28.0","null","<span style='color:red; font-size: 70px;'>错误! </span>","null","","","feedback","","","","","","","","","","","","","",""
"","","","","","html-keyboard-response","94","250299","0.0-3.0-1.0-1.0","1506","
    <style>
        .context { color: white; font-size: 35px; line-height: 40px; }
    </style>
    <div>
        <p class='context'>您正确回答了 50% 的试次。</p>
        <p class='context'>您的平均反应时为 1291 毫秒。</p>
        <p class='context'>按任意键进入下一页</p>
    </div>
"," ","","","","","","","","","","","","","","","","",""
"","","","","","instructions","95","255221","0.0-3.0-1.0-2.0-0.0","4921","","","[{""page_index"":0,""viewing_time"":1625},{""page_index"":1,""viewing_time"":1334},{""page_index"":2,""viewing_time"":1026},{""page_index"":3,""viewing_time"":935}]","","","","","","","","","","","","","","","",""
"","","","","","html-keyboard-response","96","256216","0.0-3.0-1.1-0.1-0.1","null","<div style=""font-size: 60px;"">+</div>","null","","","","","","","","","","","","","","","","",""
"","","","","","image-keyboard-response","97","256726","0.0-3.0-1.1-0.1-1.1","null","../img/triangle.png","null","","prac","shape","../img/triangle.png","","","","","","","","","","","","",""
"","","","","","image-keyboard-response","98","257752","0.0-3.0-1.1-0.1-2.1","null","../img/triangle.png","null","","prac","shape","../img/triangle.png","","","","","","","","","","","","",""
"","","","","","image-keyboard-response","99","258780","0.0-3.0-1.1-0.1-3.1","null","../img/circle.png","null","","prac","shape","../img/circle.png","","","","","","","","","","","","",""
"","","","","","image-keyboard-response","100","259795","0.0-3.0-1.1-0.1-4.1","null","../img/circle.png","null","","prac","shape","../img/circle.png","","","","","","","","","","","","",""
"","","","","","image-keyboard-response","101","260810","0.0-3.0-1.1-0.1-5.1","null","../img/circle.png","null","","prac","shape","../img/circle.png","","","","","","","","","","","","",""
"","","","","","html-keyboard-response","102","262269","0.0-3.0-1.1-0.1-6.1","944","<div style=""font-size: 60px;"">自我</div>","f","","prac","response","","100","TaskRelevant","1","true","生人","自我","../img/circle.png","红色","自我","../img/triangle.png,../img/triangle.png,../img/circle.png,../img/circle.png,../img/circle.png","{""label_type"":""生人"",""is_match"":true,""count"":1}","f","true"
"","","","","","html-keyboard-response","103","262776","0.0-3.0-1.1-0.1-7.1","null","<span style='color:GreenYellow; font-size: 70px;'>正确! </span>","null","","","feedback","","","","","","","","","","","","","",""
"","","","","","html-keyboard-response","104","263509","0.0-3.0-1.1-0.1-8.1","null","<div style=""font-size: 60px;"">+</div>","null","","","","","","","","","","","","","","","","",""
"","","","","","image-keyboard-response","105","264026","0.0-3.0-1.1-0.1-9.1","null","../img/circle.png","null","","prac","shape","../img/circle.png","","","","","","","","","","","","",""
"","","","","","image-keyboard-response","106","265050","0.0-3.0-1.1-0.1-10.1","null","../img/triangle.png","null","","prac","shape","../img/triangle.png","","","","","","","","","","","","",""
"","","","","","image-keyboard-response","107","266080","0.0-3.0-1.1-0.1-11.1","null","../img/circle.png","null","","prac","shape","../img/circle.png","","","","","","","","","","","","",""
"","","","","","image-keyboard-response","108","267103","0.0-3.0-1.1-0.1-12.1","null","../img/circle.png","null","","prac","shape","../img/circle.png","","","","","","","","","","","","",""
"","","","","","image-keyboard-response","109","268116","0.0-3.0-1.1-0.1-13.1","null","../img/triangle.png","null","","prac","shape","../img/triangle.png","","","","","","","","","","","","",""
"","","","","","html-keyboard-response","110","269136","0.0-3.0-1.1-0.1-14.1","506","<div style=""font-size: 60px;"">生人</div>","f","","prac","response","","100","TaskRelevant","1","true","自我","生人","../img/triangle.png","绿色","生人","../img/circle.png,../img/triangle.png,../img/circle.png,../img/circle.png,../img/triangle.png","{""label_type"":""自我"",""is_match"":true,""count"":1}","f","true"
"","","","","","html-keyboard-response","111","269637","0.0-3.0-1.1-0.1-15.1","null","<span style='color:GreenYellow; font-size: 70px;'>正确! </span>","null","","","feedback","","","","","","","","","","","","","",""
"","","","","","html-keyboard-response","112","269966","0.0-3.0-1.1-0.1-16.1","null","<div style=""font-size: 60px;"">+</div>","null","","","","","","","","","","","","","","","","",""
"","","","","","image-keyboard-response","113","270477","0.0-3.0-1.1-0.1-17.1","null","../img/circle.png","null","","prac","shape","../img/circle.png","","","","","","","","","","","","",""
"","","","","","image-keyboard-response","114","271505","0.0-3.0-1.1-0.1-18.1","null","../img/circle.png","null","","prac","shape","../img/circle.png","","","","","","","","","","","","",""
"","","","","","image-keyboard-response","115","272508","0.0-3.0-1.1-0.1-19.1","null","../img/circle.png","null","","prac","shape","../img/circle.png","","","","","","","","","","","","",""
"","","","","","image-keyboard-response","116","273525","0.0-3.0-1.1-0.1-20.1","null","../img/triangle.png","null","","prac","shape","../img/triangle.png","","","","","","","","","","","","",""
"","","","","","html-keyboard-response","117","274595","0.0-3.0-1.1-0.1-21.1","556","<div style=""font-size: 60px;"">自我</div>","j","","prac","response","","100","TaskRelevant","1","false","生人","[""自我""]","../img/triangle.png","绿色","生人","../img/circle.png,../img/circle.png,../img/circle.png,../img/triangle.png","{""label_type"":""生人"",""is_match"":false,""count"":1}","j","true"
"","","","","","html-keyboard-response","118","275100","0.0-3.0-1.1-0.1-22.1","null","<span style='color:GreenYellow; font-size: 70px;'>正确! </span>","null","","","feedback","","","","","","","","","","","","","",""
"","","","","","html-keyboard-response","119","276053","0.0-3.0-1.1-0.1-23.1","null","<div style=""font-size: 60px;"">+</div>","null","","","","","","","","","","","","","","","","",""
"","","","","","image-keyboard-response","120","276554","0.0-3.0-1.1-0.1-24.1","null","../img/triangle.png","null","","prac","shape","../img/triangle.png","","","","","","","","","","","","",""
"","","","","","image-keyboard-response","121","277570","0.0-3.0-1.1-0.1-25.1","null","../img/triangle.png","null","","prac","shape","../img/triangle.png","","","","","","","","","","","","",""
"","","","","","image-keyboard-response","122","278597","0.0-3.0-1.1-0.1-26.1","null","../img/triangle.png","null","","prac","shape","../img/triangle.png","","","","","","","","","","","","",""
"","","","","","html-keyboard-response","123","279788","0.0-3.0-1.1-0.1-27.1","676","<div style=""font-size: 60px;"">自我</div>","f","","prac","response","","100","TaskRelevant","1","false","自我","[""自我""]","../img/triangle.png","绿色","生人","../img/triangle.png,../img/triangle.png,../img/triangle.png","{""label_type"":""自我"",""is_match"":false,""count"":1}","j","false"
"","","","","","html-keyboard-response","124","280296","0.0-3.0-1.1-0.1-28.1","null","<span style='color:red; font-size: 70px;'>错误! </span>","null","","","feedback","","","","","","","","","","","","","",""
"","","","","","html-keyboard-response","125","281472","0.0-3.0-1.1-1.1","1175","
    <style>
        .context { color: white; font-size: 35px; line-height: 40px; }
    </style>
    <div>
        <p class='context'>您正确回答了 75% 的试次。</p>
        <p class='context'>您的平均反应时为 669 毫秒。</p>
        <p class='context'>按任意键进入下一页</p>
    </div>
"," ","","","","","","","","","","","","","","","","",""
"","","","","","html-keyboard-response","126","282079","0.0-3.0-2.0","606","
        <style>
            .context { color: white; font-size: 35px; line-height: 40px; }
            .highlight { color: lightgreen; font-size: 35px; }
            .footer { font-size: 22px; line-height: 40px; }
        </style>
        <div>
            <p class=""context"">恭喜您完成练习。按任意键进入正式实验。</p>
            <p class=""highlight"">正式实验与练习要求相同，请您尽可能又快又准地进行按键反应</p>
            <p class=""footer"">请将您左手和右手的食指放在电脑键盘的相应键位上进行按键。</p>
        </div>
    "," ","","","","","","","","","","","","","","","","",""
"","","","","","html-keyboard-response","127","282380","0.0-3.0-3.0-0.0-0.0","null","<div style=""font-size: 60px;"">+</div>","null","","","","","","","","","","","","","","","","",""
"","","","","","image-keyboard-response","128","282890","0.0-3.0-3.0-0.0-1.0","null","../img/triangle.png","null","","main","shape","../img/triangle.png","","","","","","","","","","","","",""
"","","","","","image-keyboard-response","129","283907","0.0-3.0-3.0-0.0-2.0","null","../img/circle.png","null","","main","shape","../img/circle.png","","","","","","","","","","","","",""
"","","","","","image-keyboard-response","130","284934","0.0-3.0-3.0-0.0-3.0","null","../img/circle.png","null","","main","shape","../img/circle.png","","","","","","","","","","","","",""
"","","","","","html-keyboard-response","131","286260","0.0-3.0-3.0-0.0-4.0","809","<div style=""font-size: 60px;"">自我</div>","f","","main","response","","100","TaskRelevant","1","true","自我","自我","../img/circle.png","红色","自我","../img/triangle.png,../img/circle.png,../img/circle.png","{""label_type"":""自我"",""is_match"":true,""count"":1}","f","true"
"","","","","","html-keyboard-response","132","286762","0.0-3.0-3.0-0.0-5.0","null","<span style='color:GreenYellow; font-size: 70px;'>正确! </span>","null","","","feedback","","","","","","","","","","","","","",""
"","","","","","html-keyboard-response","133","287073","0.0-3.0-3.0-0.0-6.0","null","<div style=""font-size: 60px;"">+</div>","null","","","","","","","","","","","","","","","","",""
"","","","","","image-keyboard-response","134","287590","0.0-3.0-3.0-0.0-7.0","null","../img/circle.png","null","","main","shape","../img/circle.png","","","","","","","","","","","","",""
"","","","","","image-keyboard-response","135","288618","0.0-3.0-3.0-0.0-8.0","null","../img/triangle.png","null","","main","shape","../img/triangle.png","","","","","","","","","","","","",""
"","","","","","image-keyboard-response","136","289646","0.0-3.0-3.0-0.0-9.0","null","../img/triangle.png","null","","main","shape","../img/triangle.png","","","","","","","","","","","","",""
"","","","","","image-keyboard-response","137","290673","0.0-3.0-3.0-0.0-10.0","null","../img/triangle.png","null","","main","shape","../img/triangle.png","","","","","","","","","","","","",""
"","","","","","image-keyboard-response","138","291680","0.0-3.0-3.0-0.0-11.0","null","../img/circle.png","null","","main","shape","../img/circle.png","","","","","","","","","","","","",""
"","","","","","html-keyboard-response","139","292671","0.0-3.0-3.0-0.0-12.0","476","<div style=""font-size: 60px;"">生人</div>","j","","main","response","","100","TaskRelevant","1","false","生人","[""生人""]","../img/circle.png","红色","自我","../img/circle.png,../img/triangle.png,../img/triangle.png,../img/triangle.png,../img/circle.png","{""label_type"":""生人"",""is_match"":false,""count"":1}","j","true"
"","","","","","html-keyboard-response","140","293176","0.0-3.0-3.0-0.0-13.0","null","<span style='color:GreenYellow; font-size: 70px;'>正确! </span>","null","","","feedback","","","","","","","","","","","","","",""
"","","","","","html-keyboard-response","141","294083","0.0-3.0-3.0-0.0-14.0","null","<div style=""font-size: 60px;"">+</div>","null","","","","","","","","","","","","","","","","",""
"","","","","","image-keyboard-response","142","294599","0.0-3.0-3.0-0.0-15.0","null","../img/triangle.png","null","","main","shape","../img/triangle.png","","","","","","","","","","","","",""
"","","","","","image-keyboard-response","143","295611","0.0-3.0-3.0-0.0-16.0","null","../img/circle.png","null","","main","shape","../img/circle.png","","","","","","","","","","","","",""
"","","","","","image-keyboard-response","144","296616","0.0-3.0-3.0-0.0-17.0","null","../img/circle.png","null","","main","shape","../img/circle.png","","","","","","","","","","","","",""
"","","","","","html-keyboard-response","145","297817","0.0-3.0-3.0-0.0-18.0","687","<div style=""font-size: 60px;"">生人</div>","j","","main","response","","100","TaskRelevant","1","false","自我","[""生人""]","../img/circle.png","红色","自我","../img/triangle.png,../img/circle.png,../img/circle.png","{""label_type"":""自我"",""is_match"":false,""count"":1}","j","true"
"","","","","","html-keyboard-response","146","298332","0.0-3.0-3.0-0.0-19.0","null","<span style='color:GreenYellow; font-size: 70px;'>正确! </span>","null","","","feedback","","","","","","","","","","","","","",""
"","","","","","html-keyboard-response","147","298987","0.0-3.0-3.0-0.0-20.0","null","<div style=""font-size: 60px;"">+</div>","null","","","","","","","","","","","","","","","","",""
"","","","","","image-keyboard-response","148","299500","0.0-3.0-3.0-0.0-21.0","null","../img/circle.png","null","","main","shape","../img/circle.png","","","","","","","","","","","","",""
"","","","","","image-keyboard-response","149","300528","0.0-3.0-3.0-0.0-22.0","null","../img/triangle.png","null","","main","shape","../img/triangle.png","","","","","","","","","","","","",""
"","","","","","image-keyboard-response","150","301545","0.0-3.0-3.0-0.0-23.0","null","../img/circle.png","null","","main","shape","../img/circle.png","","","","","","","","","","","","",""
"","","","","","image-keyboard-response","151","302575","0.0-3.0-3.0-0.0-24.0","null","../img/circle.png","null","","main","shape","../img/circle.png","","","","","","","","","","","","",""
"","","","","","html-keyboard-response","152","303759","0.0-3.0-3.0-0.0-25.0","667","<div style=""font-size: 60px;"">自我</div>","f","","main","response","","100","TaskRelevant","1","true","生人","自我","../img/circle.png","红色","自我","../img/circle.png,../img/triangle.png,../img/circle.png,../img/circle.png","{""label_type"":""生人"",""is_match"":true,""count"":1}","f","true"
"","","","","","html-keyboard-response","153","304262","0.0-3.0-3.0-0.0-26.0","null","<span style='color:GreenYellow; font-size: 70px;'>正确! </span>","null","","","feedback","","","","","","","","","","","","","",""
"","","","","","html-keyboard-response","154","305231","0.0-3.0-3.0-1.0","967","<style>.context{color:white; font-size: 35px; line-height:40px}</style>                          <div><p class='context'>您正确回答了100% 的试次。</p><p class='context'>您的平均反应时为660毫秒。</p><p class='context'>请按任意键进入休息</p></div>"," ","","","","","","","","","","","","","","","","",""
"","","","","","html-button-response","155","307034","0.0-3.0-3.0-2.0","1803","
                    <p>当前任务中，您还剩余0组实验</p>
                    <p>现在是休息时间，当您结束休息后，您可以点击 结束休息 按钮 继续</p>
                    <p>建议休息时间还剩余<span id=""iii"">60</span>秒</p>","0","","","","","","","","","","","","","","","","",""
"","","","","","html-keyboard-response","156","307849","0.0-3.0-4.0","814","
            <div style=""text-align: center; color: white; font-size: 35px; line-height: 40px;"">
                <p>恭喜您完成任务2, 接下来您将进入任务3。</p>
                <p style=""color: lightgreen; margin-top: 30px;"">按任意键继续</p>
            </div>
        "," ","","","","","","","","","","","","","","","","",""
"","","","","","instructions","157","325454","0.0-4.0-0.0","17604","","","[{""page_index"":0,""viewing_time"":12143},{""page_index"":1,""viewing_time"":2684},{""page_index"":2,""viewing_time"":1794},{""page_index"":3,""viewing_time"":984}]","","","","","","","","","","","","","","","",""
"","","","","","html-keyboard-response","158","325792","0.0-4.0-1.0-0.0-0.0","null","<div style=""font-size: 60px;"">+</div>","null","","","","","","","","","","","","","","","","",""
"","","","","","image-keyboard-response","159","326307","0.0-4.0-1.0-0.0-1.0","null","../img/circle.png","null","","prac","shape","../img/circle.png","","","","","","","","","","","","",""
"","","","","","image-keyboard-response","160","327334","0.0-4.0-1.0-0.0-2.0","null","../img/circle.png","null","","prac","shape","../img/circle.png","","","","","","","","","","","","",""
"","","","","","image-keyboard-response","161","328359","0.0-4.0-1.0-0.0-3.0","null","../img/triangle.png","null","","prac","shape","../img/triangle.png","","","","","","","","","","","","",""
"","","","","","image-keyboard-response","162","329377","0.0-4.0-1.0-0.0-4.0","null","../img/circle.png","null","","prac","shape","../img/circle.png","","","","","","","","","","","","",""
"","","","","","image-keyboard-response","163","330405","0.0-4.0-1.0-0.0-5.0","null","../img/circle.png","null","","prac","shape","../img/circle.png","","","","","","","","","","","","",""
"","","","","","html-keyboard-response","164","332269","0.0-4.0-1.0-0.0-6.0","1353","<div style=""font-size: 60px;"">红色</div>","f","","prac","response","","100","TaskIRRelevant","2","true","生人","红色","../img/circle.png","红色","自我","../img/circle.png,../img/circle.png,../img/triangle.png,../img/circle.png,../img/circle.png","{""label_type"":""生人"",""is_match"":true,""count"":1}","f","true"
"","","","","","html-keyboard-response","165","332775","0.0-4.0-1.0-0.0-7.0","null","<span style='color:GreenYellow; font-size: 70px;'>正确! </span>","null","","","feedback","","","","","","","","","","","","","",""
"","","","","","html-keyboard-response","166","333664","0.0-4.0-1.0-0.0-8.0","null","<div style=""font-size: 60px;"">+</div>","null","","","","","","","","","","","","","","","","",""
"","","","","","image-keyboard-response","167","334177","0.0-4.0-1.0-0.0-9.0","null","../img/triangle.png","null","","prac","shape","../img/triangle.png","","","","","","","","","","","","",""
"","","","","","image-keyboard-response","168","335207","0.0-4.0-1.0-0.0-10.0","null","../img/circle.png","null","","prac","shape","../img/circle.png","","","","","","","","","","","","",""
"","","","","","image-keyboard-response","169","336223","0.0-4.0-1.0-0.0-11.0","null","../img/circle.png","null","","prac","shape","../img/circle.png","","","","","","","","","","","","",""
"","","","","","image-keyboard-response","170","337252","0.0-4.0-1.0-0.0-12.0","null","../img/triangle.png","null","","prac","shape","../img/triangle.png","","","","","","","","","","","","",""
"","","","","","image-keyboard-response","171","338277","0.0-4.0-1.0-0.0-13.0","null","../img/circle.png","null","","prac","shape","../img/circle.png","","","","","","","","","","","","",""
"","","","","","html-keyboard-response","172","340005","0.0-4.0-1.0-0.0-14.0","1213","<div style=""font-size: 60px;"">绿色</div>","f","","prac","response","","100","TaskIRRelevant","2","true","自我","绿色","../img/triangle.png","绿色","生人","../img/triangle.png,../img/circle.png,../img/circle.png,../img/triangle.png,../img/circle.png","{""label_type"":""自我"",""is_match"":true,""count"":1}","f","true"
"","","","","","html-keyboard-response","173","340521","0.0-4.0-1.0-0.0-15.0","null","<span style='color:GreenYellow; font-size: 70px;'>正确! </span>","null","","","feedback","","","","","","","","","","","","","",""
"","","","","","html-keyboard-response","174","340876","0.0-4.0-1.0-0.0-16.0","null","<div style=""font-size: 60px;"">+</div>","null","","","","","","","","","","","","","","","","",""
"","","","","","image-keyboard-response","175","341380","0.0-4.0-1.0-0.0-17.0","null","../img/circle.png","null","","prac","shape","../img/circle.png","","","","","","","","","","","","",""
"","","","","","image-keyboard-response","176","342396","0.0-4.0-1.0-0.0-18.0","null","../img/triangle.png","null","","prac","shape","../img/triangle.png","","","","","","","","","","","","",""
"","","","","","image-keyboard-response","177","343423","0.0-4.0-1.0-0.0-19.0","null","../img/circle.png","null","","prac","shape","../img/circle.png","","","","","","","","","","","","",""
"","","","","","html-keyboard-response","178","344890","0.0-4.0-1.0-0.0-20.0","952","<div style=""font-size: 60px;"">红色</div>","j","","prac","response","","100","TaskIRRelevant","2","false","自我","[""红色""]","../img/triangle.png","绿色","生人","../img/circle.png,../img/triangle.png,../img/circle.png","{""label_type"":""自我"",""is_match"":false,""count"":1}","j","true"
"","","","","","html-keyboard-response","179","345396","0.0-4.0-1.0-0.0-21.0","null","<span style='color:GreenYellow; font-size: 70px;'>正确! </span>","null","","","feedback","","","","","","","","","","","","","",""
"","","","","","html-keyboard-response","180","346380","0.0-4.0-1.0-0.0-22.0","null","<div style=""font-size: 60px;"">+</div>","null","","","","","","","","","","","","","","","","",""
"","","","","","image-keyboard-response","181","346896","0.0-4.0-1.0-0.0-23.0","null","../img/circle.png","null","","prac","shape","../img/circle.png","","","","","","","","","","","","",""
"","","","","","image-keyboard-response","182","347913","0.0-4.0-1.0-0.0-24.0","null","../img/triangle.png","null","","prac","shape","../img/triangle.png","","","","","","","","","","","","",""
"","","","","","image-keyboard-response","183","348938","0.0-4.0-1.0-0.0-25.0","null","../img/circle.png","null","","prac","shape","../img/circle.png","","","","","","","","","","","","",""
"","","","","","image-keyboard-response","184","349964","0.0-4.0-1.0-0.0-26.0","null","../img/circle.png","null","","prac","shape","../img/circle.png","","","","","","","","","","","","",""
"","","","","","image-keyboard-response","185","350989","0.0-4.0-1.0-0.0-27.0","null","../img/triangle.png","null","","prac","shape","../img/triangle.png","","","","","","","","","","","","",""
"","","","","","html-keyboard-response","186","352315","0.0-4.0-1.0-0.0-28.0","813","<div style=""font-size: 60px;"">绿色</div>","f","","prac","response","","100","TaskIRRelevant","2","false","生人","[""绿色""]","../img/circle.png","红色","自我","../img/circle.png,../img/triangle.png,../img/circle.png,../img/circle.png,../img/triangle.png","{""label_type"":""生人"",""is_match"":false,""count"":1}","j","false"
"","","","","","html-keyboard-response","187","352825","0.0-4.0-1.0-0.0-29.0","null","<span style='color:red; font-size: 70px;'>错误! </span>","null","","","feedback","","","","","","","","","","","","","",""
"","","","","","html-keyboard-response","188","361137","0.0-4.0-1.0-1.0","8311","
    <style>
        .context { color: white; font-size: 35px; line-height: 40px; }
    </style>
    <div>
        <p class='context'>您正确回答了 75% 的试次。</p>
        <p class='context'>您的平均反应时为 1173 毫秒。</p>
        <p class='context'>按任意键进入下一页</p>
    </div>
"," ","","","","","","","","","","","","","","","","",""
"","","","","","html-keyboard-response","189","361884","0.0-4.0-2.0","745","
        <style>
            .context { color: white; font-size: 35px; line-height: 40px; }
            .highlight { color: lightgreen; font-size: 35px; }
            .footer { font-size: 22px; line-height: 40px; }
        </style>
        <div>
            <p class=""context"">恭喜您完成练习。按任意键进入正式实验。</p>
            <p class=""highlight"">正式实验与练习要求相同，请您尽可能又快又准地进行按键反应</p>
            <p class=""footer"">请将您左手和右手的食指放在电脑键盘的相应键位上进行按键。</p>
        </div>
    "," ","","","","","","","","","","","","","","","","",""
"","","","","","html-keyboard-response","190","362699","0.0-4.0-3.0-0.0-0.0","null","<div style=""font-size: 60px;"">+</div>","null","","","","","","","","","","","","","","","","",""
"","","","","","image-keyboard-response","191","363214","0.0-4.0-3.0-0.0-1.0","null","../img/triangle.png","null","","main","shape","../img/triangle.png","","","","","","","","","","","","",""
"","","","","","image-keyboard-response","192","364241","0.0-4.0-3.0-0.0-2.0","null","../img/circle.png","null","","main","shape","../img/circle.png","","","","","","","","","","","","",""
"","","","","","image-keyboard-response","193","365266","0.0-4.0-3.0-0.0-3.0","null","../img/circle.png","null","","main","shape","../img/circle.png","","","","","","","","","","","","",""
"","","","","","image-keyboard-response","194","366280","0.0-4.0-3.0-0.0-4.0","null","../img/triangle.png","null","","main","shape","../img/triangle.png","","","","","","","","","","","","",""
"","","","","","html-keyboard-response","195","367381","0.0-4.0-3.0-0.0-5.0","597","<div style=""font-size: 60px;"">绿色</div>","j","","main","response","","100","TaskIRRelevant","2","false","自我","[""绿色""]","../img/circle.png","红色","自我","../img/triangle.png,../img/circle.png,../img/circle.png,../img/triangle.png","{""label_type"":""自我"",""is_match"":false,""count"":1}","j","true"
"","","","","","html-keyboard-response","196","367888","0.0-4.0-3.0-0.0-6.0","null","<span style='color:GreenYellow; font-size: 70px;'>正确! </span>","null","","","feedback","","","","","","","","","","","","","",""
"","","","","","html-keyboard-response","197","368436","0.0-4.0-3.0-0.0-7.0","null","<div style=""font-size: 60px;"">+</div>","null","","","","","","","","","","","","","","","","",""
"","","","","","image-keyboard-response","198","368953","0.0-4.0-3.0-0.0-8.0","null","../img/triangle.png","null","","main","shape","../img/triangle.png","","","","","","","","","","","","",""
"","","","","","image-keyboard-response","199","369982","0.0-4.0-3.0-0.0-9.0","null","../img/circle.png","null","","main","shape","../img/circle.png","","","","","","","","","","","","",""
"","","","","","image-keyboard-response","200","371015","0.0-4.0-3.0-0.0-10.0","null","../img/circle.png","null","","main","shape","../img/circle.png","","","","","","","","","","","","",""
"","","","","","html-keyboard-response","201","372275","0.0-4.0-3.0-0.0-11.0","744","<div style=""font-size: 60px;"">红色</div>","f","","main","response","","100","TaskIRRelevant","2","true","生人","红色","../img/circle.png","红色","自我","../img/triangle.png,../img/circle.png,../img/circle.png","{""label_type"":""生人"",""is_match"":true,""count"":1}","f","true"
"","","","","","html-keyboard-response","202","372789","0.0-4.0-3.0-0.0-12.0","null","<span style='color:GreenYellow; font-size: 70px;'>正确! </span>","null","","","feedback","","","","","","","","","","","","","",""
"","","","","","html-keyboard-response","203","373432","0.0-4.0-3.0-0.0-13.0","null","<div style=""font-size: 60px;"">+</div>","null","","","","","","","","","","","","","","","","",""
"","","","","","image-keyboard-response","204","373933","0.0-4.0-3.0-0.0-14.0","null","../img/circle.png","null","","main","shape","../img/circle.png","","","","","","","","","","","","",""
"","","","","","image-keyboard-response","205","374960","0.0-4.0-3.0-0.0-15.0","null","../img/circle.png","null","","main","shape","../img/circle.png","","","","","","","","","","","","",""
"","","","","","image-keyboard-response","206","375975","0.0-4.0-3.0-0.0-16.0","null","../img/triangle.png","null","","main","shape","../img/triangle.png","","","","","","","","","","","","",""
"","","","","","image-keyboard-response","207","377003","0.0-4.0-3.0-0.0-17.0","null","../img/triangle.png","null","","main","shape","../img/triangle.png","","","","","","","","","","","","",""
"","","","","","html-keyboard-response","208","378633","0.0-4.0-3.0-0.0-18.0","1114","<div style=""font-size: 60px;"">绿色</div>","f","","main","response","","100","TaskIRRelevant","2","true","自我","绿色","../img/triangle.png","绿色","生人","../img/circle.png,../img/circle.png,../img/triangle.png,../img/triangle.png","{""label_type"":""自我"",""is_match"":true,""count"":1}","f","true"
"","","","","","html-keyboard-response","209","379142","0.0-4.0-3.0-0.0-19.0","null","<span style='color:GreenYellow; font-size: 70px;'>正确! </span>","null","","","feedback","","","","","","","","","","","","","",""
"","","","","","html-keyboard-response","210","380139","0.0-4.0-3.0-0.0-20.0","null","<div style=""font-size: 60px;"">+</div>","null","","","","","","","","","","","","","","","","",""
"","","","","","image-keyboard-response","211","380642","0.0-4.0-3.0-0.0-21.0","null","../img/triangle.png","null","","main","shape","../img/triangle.png","","","","","","","","","","","","",""
"","","","","","image-keyboard-response","212","381659","0.0-4.0-3.0-0.0-22.0","null","../img/triangle.png","null","","main","shape","../img/triangle.png","","","","","","","","","","","","",""
"","","","","","image-keyboard-response","213","382686","0.0-4.0-3.0-0.0-23.0","null","../img/circle.png","null","","main","shape","../img/circle.png","","","","","","","","","","","","",""
"","","","","","html-keyboard-response","214","383803","0.0-4.0-3.0-0.0-24.0","602","<div style=""font-size: 60px;"">红色</div>","j","","main","response","","100","TaskIRRelevant","2","false","生人","[""红色""]","../img/triangle.png","绿色","生人","../img/triangle.png,../img/triangle.png,../img/circle.png","{""label_type"":""生人"",""is_match"":false,""count"":1}","j","true"
"","","","","","html-keyboard-response","215","384307","0.0-4.0-3.0-0.0-25.0","null","<span style='color:GreenYellow; font-size: 70px;'>正确! </span>","null","","","feedback","","","","","","","","","","","","","",""
"","","","","","html-keyboard-response","216","385344","0.0-4.0-3.0-1.0","1036","<style>.context{color:white; font-size: 35px; line-height:40px}</style>                          <div><p class='context'>您正确回答了100% 的试次。</p><p class='context'>您的平均反应时为764毫秒。</p><p class='context'>请按任意键进入休息</p></div>"," ","","","","","","","","","","","","","","","","",""
"","","","","","html-button-response","217","387069","0.0-4.0-3.0-2.0","1724","
                    <p>当前任务中，您还剩余0组实验</p>
                    <p>现在是休息时间，当您结束休息后，您可以点击 结束休息 按钮 继续</p>
                    <p>建议休息时间还剩余<span id=""iii"">60</span>秒</p>","0","","","","","","","","","","","","","","","","",""
"","","","","","html-keyboard-response","218","387817","0.0-4.0-4.0","747","
            <div style=""text-align: center; color: white; font-size: 35px; line-height: 40px;"">
                <p>恭喜您完成任务3, 接下来您将进入任务4。</p>
                <p style=""color: lightgreen; margin-top: 30px;"">按任意键继续</p>
            </div>
        "," ","","","","","","","","","","","","","","","","",""
"","","","","","instructions","219","407992","0.0-5.0-0.0","20175","","","[{""page_index"":0,""viewing_time"":1639},{""page_index"":1,""viewing_time"":16609},{""page_index"":2,""viewing_time"":989},{""page_index"":3,""viewing_time"":937}]","","","","","","","","","","","","","","","",""
"","","","","","html-keyboard-response","220","408828","0.0-5.0-1.0-0.0-0.0","null","<div style=""font-size: 60px;"">+</div>","null","","","","","","","","","","","","","","","","",""
"","","","","","image-keyboard-response","221","409344","0.0-5.0-1.0-0.0-1.0","null","../img/circle.png","null","","prac","shape","../img/circle.png","","","","","","","","","","","","",""
"","","","","","image-keyboard-response","222","410372","0.0-5.0-1.0-0.0-2.0","null","../img/triangle.png","null","","prac","shape","../img/triangle.png","","","","","","","","","","","","",""
"","","","","","image-keyboard-response","223","411390","0.0-5.0-1.0-0.0-3.0","null","../img/triangle.png","null","","prac","shape","../img/triangle.png","","","","","","","","","","","","",""
"","","","","","html-keyboard-response","224","413132","0.0-5.0-1.0-0.0-4.0","1229","<div style=""font-size: 60px;"">绿色</div>","j","","prac","response","","100","TaskIRRelevant","1","true","生人","绿色","../img/triangle.png","绿色","生人","../img/circle.png,../img/triangle.png,../img/triangle.png","{""label_type"":""生人"",""is_match"":true,""count"":1}","f","false"
"","","","","","html-keyboard-response","225","413637","0.0-5.0-1.0-0.0-5.0","null","<span style='color:red; font-size: 70px;'>错误! </span>","null","","","feedback","","","","","","","","","","","","","",""
"","","","","","html-keyboard-response","226","414044","0.0-5.0-1.0-0.0-6.0","null","<div style=""font-size: 60px;"">+</div>","null","","","","","","","","","","","","","","","","",""
"","","","","","image-keyboard-response","227","414546","0.0-5.0-1.0-0.0-7.0","null","../img/triangle.png","null","","prac","shape","../img/triangle.png","","","","","","","","","","","","",""
"","","","","","image-keyboard-response","228","415576","0.0-5.0-1.0-0.0-8.0","null","../img/triangle.png","null","","prac","shape","../img/triangle.png","","","","","","","","","","","","",""
"","","","","","image-keyboard-response","229","416604","0.0-5.0-1.0-0.0-9.0","null","../img/triangle.png","null","","prac","shape","../img/triangle.png","","","","","","","","","","","","",""
"","","","","","image-keyboard-response","230","417621","0.0-5.0-1.0-0.0-10.0","null","../img/triangle.png","null","","prac","shape","../img/triangle.png","","","","","","","","","","","","",""
"","","","","","image-keyboard-response","231","418648","0.0-5.0-1.0-0.0-11.0","null","../img/circle.png","null","","prac","shape","../img/circle.png","","","","","","","","","","","","",""
"","","","","","html-keyboard-response","232","419711","0.0-5.0-1.0-0.0-12.0","548","<div style=""font-size: 60px;"">绿色</div>","j","","prac","response","","100","TaskIRRelevant","1","false","自我","[""绿色""]","../img/circle.png","红色","自我","../img/triangle.png,../img/triangle.png,../img/triangle.png,../img/triangle.png,../img/circle.png","{""label_type"":""自我"",""is_match"":false,""count"":1}","j","true"
"","","","","","html-keyboard-response","233","420227","0.0-5.0-1.0-0.0-13.0","null","<span style='color:GreenYellow; font-size: 70px;'>正确! </span>","null","","","feedback","","","","","","","","","","","","","",""
"","","","","","html-keyboard-response","234","420698","0.0-5.0-1.0-0.0-14.0","null","<div style=""font-size: 60px;"">+</div>","null","","","","","","","","","","","","","","","","",""
"","","","","","image-keyboard-response","235","421210","0.0-5.0-1.0-0.0-15.0","null","../img/circle.png","null","","prac","shape","../img/circle.png","","","","","","","","","","","","",""
"","","","","","image-keyboard-response","236","422237","0.0-5.0-1.0-0.0-16.0","null","../img/circle.png","null","","prac","shape","../img/circle.png","","","","","","","","","","","","",""
"","","","","","image-keyboard-response","237","423263","0.0-5.0-1.0-0.0-17.0","null","../img/triangle.png","null","","prac","shape","../img/triangle.png","","","","","","","","","","","","",""
"","","","","","html-keyboard-response","238","424656","0.0-5.0-1.0-0.0-18.0","881","<div style=""font-size: 60px;"">绿色</div>","f","","prac","response","","100","TaskIRRelevant","1","true","自我","绿色","../img/triangle.png","绿色","生人","../img/circle.png,../img/circle.png,../img/triangle.png","{""label_type"":""自我"",""is_match"":true,""count"":1}","f","true"
"","","","","","html-keyboard-response","239","425166","0.0-5.0-1.0-0.0-19.0","null","<span style='color:GreenYellow; font-size: 70px;'>正确! </span>","null","","","feedback","","","","","","","","","","","","","",""
"","","","","","html-keyboard-response","240","426134","0.0-5.0-1.0-0.0-20.0","null","<div style=""font-size: 60px;"">+</div>","null","","","","","","","","","","","","","","","","",""
"","","","","","image-keyboard-response","241","426649","0.0-5.0-1.0-0.0-21.0","null","../img/circle.png","null","","prac","shape","../img/circle.png","","","","","","","","","","","","",""
"","","","","","image-keyboard-response","242","427679","0.0-5.0-1.0-0.0-22.0","null","../img/circle.png","null","","prac","shape","../img/circle.png","","","","","","","","","","","","",""
"","","","","","image-keyboard-response","243","428701","0.0-5.0-1.0-0.0-23.0","null","../img/triangle.png","null","","prac","shape","../img/triangle.png","","","","","","","","","","","","",""
"","","","","","image-keyboard-response","244","429723","0.0-5.0-1.0-0.0-24.0","null","../img/circle.png","null","","prac","shape","../img/circle.png","","","","","","","","","","","","",""
"","","","","","html-keyboard-response","245","430939","0.0-5.0-1.0-0.0-25.0","701","<div style=""font-size: 60px;"">绿色</div>","f","","prac","response","","100","TaskIRRelevant","1","false","生人","[""绿色""]","../img/circle.png","红色","自我","../img/circle.png,../img/circle.png,../img/triangle.png,../img/circle.png","{""label_type"":""生人"",""is_match"":false,""count"":1}","j","false"
"","","","","","html-keyboard-response","246","431454","0.0-5.0-1.0-0.0-26.0","null","<span style='color:red; font-size: 70px;'>错误! </span>","null","","","feedback","","","","","","","","","","","","","",""
"","","","","","html-keyboard-response","247","432396","0.0-5.0-1.0-1.0","941","
    <style>
        .context { color: white; font-size: 35px; line-height: 40px; }
    </style>
    <div>
        <p class='context'>您正确回答了 50% 的试次。</p>
        <p class='context'>您的平均反应时为 715 毫秒。</p>
        <p class='context'>按任意键进入下一页</p>
    </div>
"," ","","","","","","","","","","","","","","","","",""
"","","","","","instructions","248","437535","0.0-5.0-1.0-2.0-0.0","5139","","","[{""page_index"":0,""viewing_time"":1667},{""page_index"":1,""viewing_time"":1417},{""page_index"":2,""viewing_time"":1076},{""page_index"":3,""viewing_time"":980}]","","","","","","","","","","","","","","","",""
"","","","","","html-keyboard-response","249","437770","0.0-5.0-1.1-0.1-0.1","null","<div style=""font-size: 60px;"">+</div>","null","","","","","","","","","","","","","","","","",""
"","","","","","image-keyboard-response","250","438285","0.0-5.0-1.1-0.1-1.1","null","../img/circle.png","null","","prac","shape","../img/circle.png","","","","","","","","","","","","",""
"","","","","","image-keyboard-response","251","439314","0.0-5.0-1.1-0.1-2.1","null","../img/triangle.png","null","","prac","shape","../img/triangle.png","","","","","","","","","","","","",""
"","","","","","image-keyboard-response","252","440333","0.0-5.0-1.1-0.1-3.1","null","../img/triangle.png","null","","prac","shape","../img/triangle.png","","","","","","","","","","","","",""
"","","","","","html-keyboard-response","253","441367","0.0-5.0-1.1-0.1-4.1","519","<div style=""font-size: 60px;"">绿色</div>","f","","prac","response","","100","TaskIRRelevant","1","true","生人","绿色","../img/triangle.png","绿色","生人","../img/circle.png,../img/triangle.png,../img/triangle.png","{""label_type"":""生人"",""is_match"":true,""count"":1}","f","true"
"","","","","","html-keyboard-response","254","441882","0.0-5.0-1.1-0.1-5.1","null","<span style='color:GreenYellow; font-size: 70px;'>正确! </span>","null","","","feedback","","","","","","","","","","","","","",""
"","","","","","html-keyboard-response","255","442381","0.0-5.0-1.1-0.1-6.1","null","<div style=""font-size: 60px;"">+</div>","null","","","","","","","","","","","","","","","","",""
"","","","","","image-keyboard-response","256","442896","0.0-5.0-1.1-0.1-7.1","null","../img/triangle.png","null","","prac","shape","../img/triangle.png","","","","","","","","","","","","",""
"","","","","","image-keyboard-response","257","443902","0.0-5.0-1.1-0.1-8.1","null","../img/triangle.png","null","","prac","shape","../img/triangle.png","","","","","","","","","","","","",""
"","","","","","image-keyboard-response","258","444932","0.0-5.0-1.1-0.1-9.1","null","../img/triangle.png","null","","prac","shape","../img/triangle.png","","","","","","","","","","","","",""
"","","","","","image-keyboard-response","259","445948","0.0-5.0-1.1-0.1-10.1","null","../img/triangle.png","null","","prac","shape","../img/triangle.png","","","","","","","","","","","","",""
"","","","","","image-keyboard-response","260","446975","0.0-5.0-1.1-0.1-11.1","null","../img/circle.png","null","","prac","shape","../img/circle.png","","","","","","","","","","","","",""
"","","","","","html-keyboard-response","261","448688","0.0-5.0-1.1-0.1-12.1","1197","<div style=""font-size: 60px;"">绿色</div>","j","","prac","response","","100","TaskIRRelevant","1","false","自我","[""绿色""]","../img/circle.png","红色","自我","../img/triangle.png,../img/triangle.png,../img/triangle.png,../img/triangle.png,../img/circle.png","{""label_type"":""自我"",""is_match"":false,""count"":1}","j","true"
"","","","","","html-keyboard-response","262","449188","0.0-5.0-1.1-0.1-13.1","null","<span style='color:GreenYellow; font-size: 70px;'>正确! </span>","null","","","feedback","","","","","","","","","","","","","",""
"","","","","","html-keyboard-response","263","449516","0.0-5.0-1.1-0.1-14.1","null","<div style=""font-size: 60px;"">+</div>","null","","","","","","","","","","","","","","","","",""
"","","","","","image-keyboard-response","264","450031","0.0-5.0-1.1-0.1-15.1","null","../img/circle.png","null","","prac","shape","../img/circle.png","","","","","","","","","","","","",""
"","","","","","image-keyboard-response","265","451060","0.0-5.0-1.1-0.1-16.1","null","../img/circle.png","null","","prac","shape","../img/circle.png","","","","","","","","","","","","",""
"","","","","","image-keyboard-response","266","452084","0.0-5.0-1.1-0.1-17.1","null","../img/triangle.png","null","","prac","shape","../img/triangle.png","","","","","","","","","","","","",""
"","","","","","html-keyboard-response","267","453315","0.0-5.0-1.1-0.1-18.1","715","<div style=""font-size: 60px;"">绿色</div>","f","","prac","response","","100","TaskIRRelevant","1","true","自我","绿色","../img/triangle.png","绿色","生人","../img/circle.png,../img/circle.png,../img/triangle.png","{""label_type"":""自我"",""is_match"":true,""count"":1}","f","true"
"","","","","","html-keyboard-response","268","453816","0.0-5.0-1.1-0.1-19.1","null","<span style='color:GreenYellow; font-size: 70px;'>正确! </span>","null","","","feedback","","","","","","","","","","","","","",""
"","","","","","html-keyboard-response","269","454872","0.0-5.0-1.1-0.1-20.1","null","<div style=""font-size: 60px;"">+</div>","null","","","","","","","","","","","","","","","","",""
"","","","","","image-keyboard-response","270","455386","0.0-5.0-1.1-0.1-21.1","null","../img/circle.png","null","","prac","shape","../img/circle.png","","","","","","","","","","","","",""
"","","","","","image-keyboard-response","271","456414","0.0-5.0-1.1-0.1-22.1","null","../img/circle.png","null","","prac","shape","../img/circle.png","","","","","","","","","","","","",""
"","","","","","image-keyboard-response","272","457437","0.0-5.0-1.1-0.1-23.1","null","../img/triangle.png","null","","prac","shape","../img/triangle.png","","","","","","","","","","","","",""
"","","","","","image-keyboard-response","273","458466","0.0-5.0-1.1-0.1-24.1","null","../img/circle.png","null","","prac","shape","../img/circle.png","","","","","","","","","","","","",""
"","","","","","html-keyboard-response","274","460406","0.0-5.0-1.1-0.1-25.1","1428","<div style=""font-size: 60px;"">绿色</div>","j","","prac","response","","100","TaskIRRelevant","1","false","生人","[""绿色""]","../img/circle.png","红色","自我","../img/circle.png,../img/circle.png,../img/triangle.png,../img/circle.png","{""label_type"":""生人"",""is_match"":false,""count"":1}","j","true"
"","","","","","html-keyboard-response","275","460911","0.0-5.0-1.1-0.1-26.1","null","<span style='color:GreenYellow; font-size: 70px;'>正确! </span>","null","","","feedback","","","","","","","","","","","","","",""
"","","","","","html-keyboard-response","276","464464","0.0-5.0-1.1-1.1","3552","
    <style>
        .context { color: white; font-size: 35px; line-height: 40px; }
    </style>
    <div>
        <p class='context'>您正确回答了 100% 的试次。</p>
        <p class='context'>您的平均反应时为 965 毫秒。</p>
        <p class='context'>按任意键进入下一页</p>
    </div>
"," ","","","","","","","","","","","","","","","","",""
"","","","","","html-keyboard-response","277","465069","0.0-5.0-2.0","604","
        <style>
            .context { color: white; font-size: 35px; line-height: 40px; }
            .highlight { color: lightgreen; font-size: 35px; }
            .footer { font-size: 22px; line-height: 40px; }
        </style>
        <div>
            <p class=""context"">恭喜您完成练习。按任意键进入正式实验。</p>
            <p class=""highlight"">正式实验与练习要求相同，请您尽可能又快又准地进行按键反应</p>
            <p class=""footer"">请将您左手和右手的食指放在电脑键盘的相应键位上进行按键。</p>
        </div>
    "," ","","","","","","","","","","","","","","","","",""
"","","","","","html-keyboard-response","278","466046","0.0-5.0-3.0-0.0-0.0","null","<div style=""font-size: 60px;"">+</div>","null","","","","","","","","","","","","","","","","",""
"","","","","","image-keyboard-response","279","466557","0.0-5.0-3.0-0.0-1.0","null","../img/triangle.png","null","","main","shape","../img/triangle.png","","","","","","","","","","","","",""
"","","","","","image-keyboard-response","280","467589","0.0-5.0-3.0-0.0-2.0","null","../img/triangle.png","null","","main","shape","../img/triangle.png","","","","","","","","","","","","",""
"","","","","","image-keyboard-response","281","468614","0.0-5.0-3.0-0.0-3.0","null","../img/triangle.png","null","","main","shape","../img/triangle.png","","","","","","","","","","","","",""
"","","","","","image-keyboard-response","282","469640","0.0-5.0-3.0-0.0-4.0","null","../img/circle.png","null","","main","shape","../img/circle.png","","","","","","","","","","","","",""
"","","","","","image-keyboard-response","283","470668","0.0-5.0-3.0-0.0-5.0","null","../img/triangle.png","null","","main","shape","../img/triangle.png","","","","","","","","","","","","",""
"","","","","","html-keyboard-response","284","472249","0.0-5.0-3.0-0.0-6.0","1065","<div style=""font-size: 60px;"">绿色</div>","f","","main","response","","100","TaskIRRelevant","1","true","生人","绿色","../img/triangle.png","绿色","生人","../img/triangle.png,../img/triangle.png,../img/triangle.png,../img/circle.png,../img/triangle.png","{""label_type"":""生人"",""is_match"":true,""count"":1}","f","true"
"","","","","","html-keyboard-response","285","472761","0.0-5.0-3.0-0.0-7.0","null","<span style='color:GreenYellow; font-size: 70px;'>正确! </span>","null","","","feedback","","","","","","","","","","","","","",""
"","","","","","html-keyboard-response","286","473572","0.0-5.0-3.0-0.0-8.0","null","<div style=""font-size: 60px;"">+</div>","null","","","","","","","","","","","","","","","","",""
"","","","","","image-keyboard-response","287","474086","0.0-5.0-3.0-0.0-9.0","null","../img/circle.png","null","","main","shape","../img/circle.png","","","","","","","","","","","","",""
"","","","","","image-keyboard-response","288","475104","0.0-5.0-3.0-0.0-10.0","null","../img/triangle.png","null","","main","shape","../img/triangle.png","","","","","","","","","","","","",""
"","","","","","image-keyboard-response","289","476122","0.0-5.0-3.0-0.0-11.0","null","../img/circle.png","null","","main","shape","../img/circle.png","","","","","","","","","","","","",""
"","","","","","image-keyboard-response","290","477149","0.0-5.0-3.0-0.0-12.0","null","../img/triangle.png","null","","main","shape","../img/triangle.png","","","","","","","","","","","","",""
"","","","","","html-keyboard-response","291","478314","0.0-5.0-3.0-0.0-13.0","650","<div style=""font-size: 60px;"">绿色</div>","f","","main","response","","100","TaskIRRelevant","1","true","自我","绿色","../img/triangle.png","绿色","生人","../img/circle.png,../img/triangle.png,../img/circle.png,../img/triangle.png","{""label_type"":""自我"",""is_match"":true,""count"":1}","f","true"
"","","","","","html-keyboard-response","292","478815","0.0-5.0-3.0-0.0-14.0","null","<span style='color:GreenYellow; font-size: 70px;'>正确! </span>","null","","","feedback","","","","","","","","","","","","","",""
"","","","","","html-keyboard-response","293","479265","0.0-5.0-3.0-0.0-15.0","null","<div style=""font-size: 60px;"">+</div>","null","","","","","","","","","","","","","","","","",""
"","","","","","image-keyboard-response","294","479780","0.0-5.0-3.0-0.0-16.0","null","../img/triangle.png","null","","main","shape","../img/triangle.png","","","","","","","","","","","","",""
"","","","","","image-keyboard-response","295","480796","0.0-5.0-3.0-0.0-17.0","null","../img/triangle.png","null","","main","shape","../img/triangle.png","","","","","","","","","","","","",""
"","","","","","image-keyboard-response","296","481828","0.0-5.0-3.0-0.0-18.0","null","../img/triangle.png","null","","main","shape","../img/triangle.png","","","","","","","","","","","","",""
"","","","","","image-keyboard-response","297","482854","0.0-5.0-3.0-0.0-19.0","null","../img/triangle.png","null","","main","shape","../img/triangle.png","","","","","","","","","","","","",""
"","","","","","image-keyboard-response","298","483867","0.0-5.0-3.0-0.0-20.0","null","../img/circle.png","null","","main","shape","../img/circle.png","","","","","","","","","","","","",""
"","","","","","html-keyboard-response","299","485032","0.0-5.0-3.0-0.0-21.0","650","<div style=""font-size: 60px;"">绿色</div>","j","","main","response","","100","TaskIRRelevant","1","false","生人","[""绿色""]","../img/circle.png","红色","自我","../img/triangle.png,../img/triangle.png,../img/triangle.png,../img/triangle.png,../img/circle.png","{""label_type"":""生人"",""is_match"":false,""count"":1}","j","true"
"","","","","","html-keyboard-response","300","485534","0.0-5.0-3.0-0.0-22.0","null","<span style='color:GreenYellow; font-size: 70px;'>正确! </span>","null","","","feedback","","","","","","","","","","","","","",""
"","","","","","html-keyboard-response","301","486003","0.0-5.0-3.0-0.0-23.0","null","<div style=""font-size: 60px;"">+</div>","null","","","","","","","","","","","","","","","","",""
"","","","","","image-keyboard-response","302","486505","0.0-5.0-3.0-0.0-24.0","null","../img/triangle.png","null","","main","shape","../img/triangle.png","","","","","","","","","","","","",""
"","","","","","image-keyboard-response","303","487512","0.0-5.0-3.0-0.0-25.0","null","../img/triangle.png","null","","main","shape","../img/triangle.png","","","","","","","","","","","","",""
"","","","","","image-keyboard-response","304","488536","0.0-5.0-3.0-0.0-26.0","null","../img/triangle.png","null","","main","shape","../img/triangle.png","","","","","","","","","","","","",""
"","","","","","image-keyboard-response","305","489563","0.0-5.0-3.0-0.0-27.0","null","../img/circle.png","null","","main","shape","../img/circle.png","","","","","","","","","","","","",""
"","","","","","image-keyboard-response","306","490588","0.0-5.0-3.0-0.0-28.0","null","../img/triangle.png","null","","main","shape","../img/triangle.png","","","","","","","","","","","","",""
"","","","","","html-keyboard-response","307","492046","0.0-5.0-3.0-0.0-29.0","941","<div style=""font-size: 60px;"">红色</div>","j","","main","response","","100","TaskIRRelevant","1","false","自我","[""红色""]","../img/triangle.png","绿色","生人","../img/triangle.png,../img/triangle.png,../img/triangle.png,../img/circle.png,../img/triangle.png","{""label_type"":""自我"",""is_match"":false,""count"":1}","j","true"
"","","","","","html-keyboard-response","308","492553","0.0-5.0-3.0-0.0-30.0","null","<span style='color:GreenYellow; font-size: 70px;'>正确! </span>","null","","","feedback","","","","","","","","","","","","","",""
"","","","","","html-keyboard-response","309","509165","0.0-5.0-3.0-1.0","16611","<style>.context{color:white; font-size: 35px; line-height:40px}</style>                          <div><p class='context'>您正确回答了100% 的试次。</p><p class='context'>您的平均反应时为827毫秒。</p><p class='context'>请按任意键进入休息</p></div>"," ","","","","","","","","","","","","","","","","",""
"","","","","","html-button-response","310","510700","0.0-5.0-3.0-2.0","1534","
                    <p>当前任务中，您还剩余0组实验</p>
                    <p>现在是休息时间，当您结束休息后，您可以点击 结束休息 按钮 继续</p>
                    <p>建议休息时间还剩余<span id=""iii"">60</span>秒</p>","0","","","","","","","","","","","","","","","","",""
"","","","","","html-keyboard-response","311","511782","0.0-5.0-4.0","1081","
            <div style=""text-align: center; color: white; font-size: 35px; line-height: 40px;"">
                <p>恭喜您完成任务4!</p>
                <p style=""color: lightgreen; margin-top: 30px;"">按任意键继续</p>
            </div>
        "," ","","","","","","","","","","","","","","","","",""
"","","","","","html-keyboard-response","312","513301","0.0-6.0","1519","
        <p>感谢您参加我们的实验，请<span style=""color: yellow;"">按任意键开始下载数据</span>，并通知实验员。</p>
        <p>感谢您的配合！</p>"," ","","","","","","","","","","","","","","","","",""
